ACCELEROMETER X,ACCELEROMETER Y,ACCELEROMETER Z,LIGHT,PROXIMITY (m),SOUND LEVEL (dB),LOCATION Latitude : ,LOCATION Longitude : ,LOCATION Altitude ( m),LOCATION Altitude-google ( m),LOCATION Speed ( Kmh),LOCATION Accuracy ( m),LOCATION ORIENTATION (°),Satellites in range,Time,YYYY-MO-DD HH-MI-SS_SSS
2.25,3.371,9.711,1480,1,23.24,,,,NaN,,,,0 / 0,8,2018-11-09 17:05:58:992
4.376,5.008,5.181,824,1,23.24,,,,NaN,,,,0 / 0,108,2018-11-09 17:05:59:092
2.221,-1.254,-2.145,755,1,23.24,,,,NaN,,,,0 / 0,208,2018-11-09 17:05:59:192
3.265,-2.384,7.355,752,1,41.74,,,,NaN,,,,0 / 0,308,2018-11-09 17:05:59:292
10.592,-7.46,4.798,611,1,41.74,,,,NaN,,,,0 / 0,408,2018-11-09 17:05:59:392
10.592,-7.46,4.798,611,1,41.74,,,,NaN,,,,0 / 0,509,2018-11-09 17:05:59:493
10.592,-7.46,4.798,611,1,41.74,,,,NaN,,,,0 / 0,608,2018-11-09 17:05:59:592
10.592,-7.46,4.798,611,1,41.74,,,,NaN,,,,0 / 0,709,2018-11-09 17:05:59:693
4.587,-6.062,-2.988,373,1,41.74,,,,NaN,,,,0 / 0,808,2018-11-09 17:05:59:792
3.639,-7.106,-1.618,377,1,41.04,,,,NaN,,,,0 / 0,908,2018-11-09 17:05:59:892
-0.44,-8.466,2.087,368,1,41.04,,,,NaN,,,,0 / 0,1009,2018-11-09 17:05:59:993
10.094,-8.188,-0.095,240,1,41.04,,,,NaN,,,,0 / 0,1108,2018-11-09 17:06:00:092
2.786,-7.987,0.909,240,0,43.06,,,,NaN,,,,0 / 0,1208,2018-11-09 17:06:00:192
3.064,-12.756,0.775,14,0,43.06,,,,NaN,,,,0 / 0,1309,2018-11-09 17:06:00:293
2.193,-5.296,1.312,8,0,43.06,,,,NaN,,,,0 / 0,1408,2018-11-09 17:06:00:392
-0.89,-3.629,0.086,0,0,43.06,,,,NaN,,,,0 / 0,1508,2018-11-09 17:06:00:492
-2.078,-6.972,-8.274,25,0,33.73,,,,NaN,,,,0 / 0,1608,2018-11-09 17:06:00:592
-0.354,-6.253,0.928,17,0,33.73,,,,NaN,,,,0 / 0,1708,2018-11-09 17:06:00:692
-0.919,-8.906,-1.685,15,0,33.73,,,,NaN,,,,0 / 0,1808,2018-11-09 17:06:00:792
-1.34,-9.519,-1.589,0,0,54.35,,,,NaN,,,,0 / 0,1908,2018-11-09 17:06:00:892
-1.13,-9.51,-1.149,23,0,54.35,,,,NaN,,,,0 / 0,2008,2018-11-09 17:06:00:992
-0.747,-9.462,-1.082,17,0,54.35,,,,NaN,,,,0 / 0,2108,2018-11-09 17:06:01:092
-1.522,-9.596,-1.063,10,0,54.02,,,,NaN,,,,0 / 0,2208,2018-11-09 17:06:01:192
-1.206,-9.49,0.047,19,0,54.02,,,,NaN,,,,0 / 0,2308,2018-11-09 17:06:01:292
-0.402,-9.146,-1.302,8,0,54.02,,,,NaN,,,,0 / 0,2409,2018-11-09 17:06:01:393
1.158,-10.515,-0.9,20,0,37.26,,,,NaN,,,,0 / 0,2508,2018-11-09 17:06:01:492
-2.346,-9.979,1.264,16,0,37.26,,,,NaN,,,,0 / 0,2609,2018-11-09 17:06:01:593
-1.225,-9.203,0.402,17,0,37.26,,,,NaN,,,,0 / 0,2708,2018-11-09 17:06:01:692
-3.61,-11.052,4.261,12,0,43.17,,,,NaN,,,,0 / 0,2808,2018-11-09 17:06:01:792
-3.371,-9.069,0.114,9,0,43.17,,,,NaN,,,,0 / 0,2908,2018-11-09 17:06:01:892
-2.183,-8.284,2.02,5,0,43.17,,,,NaN,,,,0 / 0,3009,2018-11-09 17:06:01:993
-2.164,-7.613,3.371,11,0,44.34,,,,NaN,,,,0 / 0,3108,2018-11-09 17:06:02:092
-3.304,-7.661,4.233,6,0,44.34,,,,NaN,,,,0 / 0,3208,2018-11-09 17:06:02:192
-2.212,-5.889,6.253,23,0,44.34,,,,NaN,,,,0 / 0,3308,2018-11-09 17:06:02:292
-2.825,-7.489,9.002,0,0,51.4,,,,NaN,,,,0 / 0,3408,2018-11-09 17:06:02:392
-5.842,-3.275,9.998,22,0,51.4,,,,NaN,,,,0 / 0,3508,2018-11-09 17:06:02:492
-0.498,-3.61,12.957,12,0,51.4,,,,NaN,,,,0 / 0,3608,2018-11-09 17:06:02:592
-5.162,-2.039,13.838,7,0,53.72,,,,NaN,,,,0 / 0,3708,2018-11-09 17:06:02:692
-4.836,-1.608,10.898,8,0,53.72,,,,NaN,,,,0 / 0,3808,2018-11-09 17:06:02:792
-4.769,-2.059,11.55,22,0,53.72,,,,NaN,,,,0 / 0,3908,2018-11-09 17:06:02:892
-4.194,-3.993,10.103,18,0,53.72,,,,NaN,,,,0 / 0,4009,2018-11-09 17:06:02:993
-4.367,-5.018,9.002,27,0,60.17,,,,NaN,,,,0 / 0,4108,2018-11-09 17:06:03:092
-3.869,-6.253,7.374,6,0,60.17,,,,NaN,,,,0 / 0,4209,2018-11-09 17:06:03:193
-3.38,-7.412,4.999,0,0,60.17,,,,NaN,,,,0 / 0,4308,2018-11-09 17:06:03:292
-1.857,-6.464,2.815,20,0,61.55,,,,NaN,,,,0 / 0,4408,2018-11-09 17:06:03:392
-1.455,-7.364,3.399,12,0,61.55,,,,NaN,,,,0 / 0,4508,2018-11-09 17:06:03:492
-3.304,-10.889,3.256,2,0,61.55,,,,NaN,,,,0 / 0,4608,2018-11-09 17:06:03:592
-1.963,-9.768,0.928,14,0,54.84,,,,NaN,,,,0 / 0,4708,2018-11-09 17:06:03:692
-2.423,-9.136,1.158,19,0,54.84,,,,NaN,,,,0 / 0,4808,2018-11-09 17:06:03:792
-0.699,-9.165,1.312,18,0,54.84,,,,NaN,,,,0 / 0,4908,2018-11-09 17:06:03:892
-2.758,-7.067,3.869,18,0,51.74,,,,NaN,,,,0 / 0,5008,2018-11-09 17:06:03:992
-2.403,-7.412,4.051,12,0,51.74,,,,NaN,,,,0 / 0,5108,2018-11-09 17:06:04:092
-2.796,-8.791,3.265,18,0,51.74,,,,NaN,,,,0 / 0,5208,2018-11-09 17:06:04:192
-3.917,-8.82,6.847,5,0,44.27,,,,NaN,,,,0 / 0,5308,2018-11-09 17:06:04:292
-4.031,-3.352,8.178,7,0,44.27,,,,NaN,,,,0 / 0,5408,2018-11-09 17:06:04:392
-6.052,-1.321,9.347,25,0,44.27,,,,NaN,,,,0 / 0,5509,2018-11-09 17:06:04:493
-5.602,-1.561,10.592,17,0,44.27,,,,NaN,,,,0 / 0,5608,2018-11-09 17:06:04:592
-3.62,-1.379,11.741,11,0,53.44,,,,NaN,,,,0 / 0,5708,2018-11-09 17:06:04:692
-4.28,0.507,12.335,11,0,53.44,,,,NaN,,,,0 / 0,5808,2018-11-09 17:06:04:792
-4.376,-0.45,11.454,12,0,53.44,,,,NaN,,,,0 / 0,5908,2018-11-09 17:06:04:892
-4.462,-2.298,10.496,18,0,60.32,,,,NaN,,,,0 / 0,6008,2018-11-09 17:06:04:992
-2.174,-5.181,8.973,6,0,60.32,,,,NaN,,,,0 / 0,6108,2018-11-09 17:06:05:092
-2.93,-6.186,6.79,5,0,60.32,,,,NaN,,,,0 / 0,6220,2018-11-09 17:06:05:204
-4.213,-9.107,4.29,9,0,59.06,,,,NaN,,,,0 / 0,6308,2018-11-09 17:06:05:292
-2.078,-6.512,2.221,14,0,59.06,,,,NaN,,,,0 / 0,6408,2018-11-09 17:06:05:392
-4.98,-8.351,3.17,14,0,59.06,,,,NaN,,,,0 / 0,6509,2018-11-09 17:06:05:493
-1.752,-11.061,0.938,2,0,55.59,,,,NaN,,,,0 / 0,6609,2018-11-09 17:06:05:593
-2.499,-9.127,1.695,10,0,55.59,,,,NaN,,,,0 / 0,6708,2018-11-09 17:06:05:692
-1.695,-10.036,-1.34,8,0,55.59,,,,NaN,,,,0 / 0,6808,2018-11-09 17:06:05:792
-3.361,-7.881,2.47,32,0,55.57,,,,NaN,,,,0 / 0,6908,2018-11-09 17:06:05:892
-2.241,-8.063,2.968,0,0,55.57,,,,NaN,,,,0 / 0,7008,2018-11-09 17:06:05:992
-3.859,-7.23,3.016,16,0,55.57,,,,NaN,,,,0 / 0,7108,2018-11-09 17:06:06:092
-2.518,-7.02,7.134,12,0,55.57,,,,NaN,,,,0 / 0,7208,2018-11-09 17:06:06:192
-3.217,-4.166,9.194,22,0,51.37,,,,NaN,,,,0 / 0,7308,2018-11-09 17:06:06:292
-4.922,-2.691,10.898,16,0,51.37,,,,NaN,,,,0 / 0,7408,2018-11-09 17:06:06:392
-3.955,-0.881,12.364,0,0,51.37,,,,NaN,,,,0 / 0,7508,2018-11-09 17:06:06:492
-5.593,0.814,9.51,20,0,51.43,,,,NaN,,,,0 / 0,7608,2018-11-09 17:06:06:592
-4.798,0.287,11.942,2,0,51.43,,,,NaN,,,,0 / 0,7708,2018-11-09 17:06:06:692
-4.271,-0.737,12.009,10,0,51.43,,,,NaN,,,,0 / 0,7809,2018-11-09 17:06:06:793
-3.658,-2.652,10.295,25,0,62.24,,,,NaN,,,,0 / 0,7909,2018-11-09 17:06:06:893
-4.06,-4.865,8.274,14,0,62.24,,,,NaN,,,,0 / 0,8008,2018-11-09 17:06:06:992
-1.532,-8.121,5.391,17,0,62.24,,,,NaN,,,,0 / 0,8108,2018-11-09 17:06:07:092
-0.938,-8.245,2.49,35,0,59.42,,,,NaN,,,,0 / 0,8208,2018-11-09 17:06:07:192
-3.083,-5.497,2.643,18,0,59.42,,,,NaN,,,,0 / 0,8308,2018-11-09 17:06:07:292
-2.413,-9.127,2.03,0,0,59.42,,,,NaN,,,,0 / 0,8408,2018-11-09 17:06:07:392
-2.739,-12.996,2.221,5,0,55.01,,,,NaN,,,,0 / 0,8508,2018-11-09 17:06:07:492
-2.576,-9.567,-0.383,0,0,55.01,,,,NaN,,,,0 / 0,8609,2018-11-09 17:06:07:593
-2.729,-9.337,3.648,14,0,55.01,,,,NaN,,,,0 / 0,8708,2018-11-09 17:06:07:692
-5.123,-5.928,1.934,15,0,54.57,,,,NaN,,,,0 / 0,8808,2018-11-09 17:06:07:792
-1.436,-8.916,2.375,0,0,54.57,,,,NaN,,,,0 / 0,8908,2018-11-09 17:06:07:892
-3.39,-7.91,4.75,5,0,54.57,,,,NaN,,,,0 / 0,9009,2018-11-09 17:06:07:993
-5.468,-2.892,8.265,8,0,54.57,,,,NaN,,,,0 / 0,9109,2018-11-09 17:06:08:093
-5.008,-5.65,8.274,31,0,46.67,,,,NaN,,,,0 / 0,9208,2018-11-09 17:06:08:192
-5.238,-1.312,9.299,13,0,46.67,,,,NaN,,,,0 / 0,9308,2018-11-09 17:06:08:292
-5.746,-1.158,12.593,8,0,46.67,,,,NaN,,,,0 / 0,9408,2018-11-09 17:06:08:392
-4.549,-0.536,14.078,6,0,52.2,,,,NaN,,,,0 / 0,9508,2018-11-09 17:06:08:492
-4.252,-1.12,12.632,14,0,52.2,,,,NaN,,,,0 / 0,9608,2018-11-09 17:06:08:592
-5.056,-2.288,11.195,6,0,52.2,,,,NaN,,,,0 / 0,9708,2018-11-09 17:06:08:692
-3.811,-3.85,8.341,6,0,66.09,,,,NaN,,,,0 / 0,9808,2018-11-09 17:06:08:792
-2.643,-6.838,6.953,11,0,66.09,,,,NaN,,,,0 / 0,9908,2018-11-09 17:06:08:892
-2.202,-7.996,3.237,9,0,66.09,,,,NaN,,,,0 / 0,10008,2018-11-09 17:06:08:992
-1.302,-5.995,2.403,10,0,64.44,,,,NaN,,,,0 / 0,10109,2018-11-09 17:06:09:093
-2.978,-6.818,3.639,8,0,64.44,,,,NaN,,,,0 / 0,10208,2018-11-09 17:06:09:192
-1.043,-11.799,1.561,4,0,64.44,,,,NaN,,,,0 / 0,10308,2018-11-09 17:06:09:292
-1.168,-9.165,-0.593,7,0,64.44,,,,NaN,,,,0 / 0,10408,2018-11-09 17:06:09:392
-2.509,-9.692,1.695,0,0,57.01,,,,NaN,,,,0 / 0,10508,2018-11-09 17:06:09:492
-2.078,-7.508,3.246,1,0,57.01,,,,NaN,,,,0 / 0,10608,2018-11-09 17:06:09:592
-2.288,-7.518,1.158,8,0,57.01,,,,NaN,,,,0 / 0,10709,2018-11-09 17:06:09:693
-2.633,-7.259,2.758,23,0,52.57,,,,NaN,,,,0 / 0,10808,2018-11-09 17:06:09:792
-3.38,-7.182,5.803,19,0,52.57,,,,NaN,,,,0 / 0,10909,2018-11-09 17:06:09:893
-2.624,-3.773,6.771,2,0,52.57,,,,NaN,,,,0 / 0,11008,2018-11-09 17:06:09:992
-6.004,-0.986,10.372,3,0,47.74,,,,NaN,,,,0 / 0,11108,2018-11-09 17:06:10:092
-5.181,-0.603,10.419,21,0,47.74,,,,NaN,,,,0 / 0,11208,2018-11-09 17:06:10:192
-7.249,-0.641,12.249,14,0,47.74,,,,NaN,,,,0 / 0,11308,2018-11-09 17:06:10:292
-4.97,-0.086,11.339,17,0,58.28,,,,NaN,,,,0 / 0,11408,2018-11-09 17:06:10:392
-3.897,-1.484,11.291,6,0,58.28,,,,NaN,,,,0 / 0,11508,2018-11-09 17:06:10:492
-5.123,-2.614,9.711,19,0,58.28,,,,NaN,,,,0 / 0,11608,2018-11-09 17:06:10:592
-3.955,-4.462,7.508,9,0,65.46,,,,NaN,,,,0 / 0,11708,2018-11-09 17:06:10:692
-1.685,-7.518,5.755,10,0,65.46,,,,NaN,,,,0 / 0,11808,2018-11-09 17:06:10:792
-2.346,-7.661,3.227,15,0,65.46,,,,NaN,,,,0 / 0,11909,2018-11-09 17:06:10:893
-1.197,-8.073,2.384,11,0,63.37,,,,NaN,,,,0 / 0,12009,2018-11-09 17:06:10:993
-4.223,-9.299,1.934,11,0,63.37,,,,NaN,,,,0 / 0,12108,2018-11-09 17:06:11:092
-1.532,-10.123,0.785,16,0,63.37,,,,NaN,,,,0 / 0,12208,2018-11-09 17:06:11:192
-2.317,-10.142,1.149,10,0,50.75,,,,NaN,,,,0 / 0,12308,2018-11-09 17:06:11:292
-1.599,-9.347,0.478,11,0,50.75,,,,NaN,,,,0 / 0,12408,2018-11-09 17:06:11:392
-1.963,-9.146,2.212,0,0,50.75,,,,NaN,,,,0 / 0,12508,2018-11-09 17:06:11:492
-2.614,-8.092,0.852,19,0,50.75,,,,NaN,,,,0 / 0,12608,2018-11-09 17:06:11:592
-0.919,-6.589,3.514,9,0,50.23,,,,NaN,,,,0 / 0,12708,2018-11-09 17:06:11:692
-3.16,-7.949,4.348,11,0,50.23,,,,NaN,,,,0 / 0,12809,2018-11-09 17:06:11:793
-2.729,-6.311,7.125,0,0,50.23,,,,NaN,,,,0 / 0,12908,2018-11-09 17:06:11:892
-4.07,-5.612,11.291,17,0,41.93,,,,NaN,,,,0 / 0,13008,2018-11-09 17:06:11:992
-4.788,-2.02,11.339,12,0,41.93,,,,NaN,,,,0 / 0,13108,2018-11-09 17:06:12:092
-5.679,0.057,10.103,1,0,41.93,,,,NaN,,,,0 / 0,13208,2018-11-09 17:06:12:192
-5.985,-0.488,13.139,15,0,52.74,,,,NaN,,,,0 / 0,13308,2018-11-09 17:06:12:292
-4.798,-2.652,11.31,24,0,52.74,,,,NaN,,,,0 / 0,13409,2018-11-09 17:06:12:393
-3.782,-3.371,9.031,22,0,52.74,,,,NaN,,,,0 / 0,13508,2018-11-09 17:06:12:492
-3.802,-4.539,7.767,18,0,62.11,,,,NaN,,,,0 / 0,13608,2018-11-09 17:06:12:592
-2.375,-6.071,6.397,22,0,62.11,,,,NaN,,,,0 / 0,13709,2018-11-09 17:06:12:693
-2.806,-7.881,4.29,6,0,62.11,,,,NaN,,,,0 / 0,13808,2018-11-09 17:06:12:792
-2.355,-6.771,2.643,7,0,62.19,,,,NaN,,,,0 / 0,13908,2018-11-09 17:06:12:892
-2.183,-7.489,2.614,23,0,62.19,,,,NaN,,,,0 / 0,14008,2018-11-09 17:06:12:992
-2.681,-11.157,2.327,11,0,62.19,,,,NaN,,,,0 / 0,14108,2018-11-09 17:06:13:092
-2.097,-9.605,0.679,13,0,52.56,,,,NaN,,,,0 / 0,14208,2018-11-09 17:06:13:192
-2.106,-9.596,0.632,13,0,52.56,,,,NaN,,,,0 / 0,14309,2018-11-09 17:06:13:293
-1.494,-8.715,2.844,17,0,52.56,,,,NaN,,,,0 / 0,14408,2018-11-09 17:06:13:392
-1.886,-7.824,1.139,22,0,52.56,,,,NaN,,,,0 / 0,14509,2018-11-09 17:06:13:493
-3.189,-7.336,2.806,7,0,49.47,,,,NaN,,,,0 / 0,14608,2018-11-09 17:06:13:592
-1.896,-7.115,5.43,9,0,49.47,,,,NaN,,,,0 / 0,14709,2018-11-09 17:06:13:693
-4.194,-4.28,8.217,0,0,49.47,,,,NaN,,,,0 / 0,14809,2018-11-09 17:06:13:793
-4.577,-5.43,9.308,12,0,47.57,,,,NaN,,,,0 / 0,14908,2018-11-09 17:06:13:892
-5.305,-1.264,11.569,11,0,47.57,,,,NaN,,,,0 / 0,15009,2018-11-09 17:06:13:993
-3.591,-0.373,11.722,0,0,47.57,,,,NaN,,,,0 / 0,15108,2018-11-09 17:06:14:092
-5.832,-0.258,14.049,17,0,57.02,,,,NaN,,,,0 / 0,15208,2018-11-09 17:06:14:192
-5.832,-1.273,12.086,9,0,57.02,,,,NaN,,,,0 / 0,15308,2018-11-09 17:06:14:292
-5.085,-3.533,9.998,17,0,57.02,,,,NaN,,,,0 / 0,15409,2018-11-09 17:06:14:393
-3.715,-5.344,7.632,5,0,61.73,,,,NaN,,,,0 / 0,15508,2018-11-09 17:06:14:492
-3.715,-6.799,6.416,26,0,61.73,,,,NaN,,,,0 / 0,15608,2018-11-09 17:06:14:592
-2.921,-8.044,3.648,0,0,61.73,,,,NaN,,,,0 / 0,15708,2018-11-09 17:06:14:692
-2.384,-7.355,2.288,15,0,59.03,,,,NaN,,,,0 / 0,15808,2018-11-09 17:06:14:792
-1.877,-5.995,3.275,13,0,59.03,,,,NaN,,,,0 / 0,15908,2018-11-09 17:06:14:892
-2.94,-12.095,2.47,9,0,59.03,,,,NaN,,,,0 / 0,16008,2018-11-09 17:06:14:992
-1.465,-9.529,-0.641,16,0,54.12,,,,NaN,,,,0 / 0,16108,2018-11-09 17:06:15:092
-2.375,-9.596,2.174,7,0,54.12,,,,NaN,,,,0 / 0,16208,2018-11-09 17:06:15:192
-1.877,-9.328,1.896,14,0,54.12,,,,NaN,,,,0 / 0,16308,2018-11-09 17:06:15:292
-2.183,-7.834,1.158,26,0,53.7,,,,NaN,,,,0 / 0,16408,2018-11-09 17:06:15:392
-2.825,-7.594,4.328,3,0,53.7,,,,NaN,,,,0 / 0,16508,2018-11-09 17:06:15:492
-0.938,-7.786,4.146,19,0,53.7,,,,NaN,,,,0 / 0,16608,2018-11-09 17:06:15:592
-5.277,-6.387,7.249,2,0,53.7,,,,NaN,,,,0 / 0,16708,2018-11-09 17:06:15:692
-4.932,-4.146,6.78,9,0,44.83,,,,NaN,,,,0 / 0,16808,2018-11-09 17:06:15:792
-4.635,-7.422,9.423,12,0,44.83,,,,NaN,,,,0 / 0,16908,2018-11-09 17:06:15:892
-5.305,-1.063,9.807,21,0,44.83,,,,NaN,,,,0 / 0,17008,2018-11-09 17:06:15:992
-4.539,-0.114,10.496,7,0,50.25,,,,NaN,,,,0 / 0,17108,2018-11-09 17:06:16:092
-5.784,-0.612,12.785,4,0,50.25,,,,NaN,,,,0 / 0,17208,2018-11-09 17:06:16:192
-5.564,-1.312,10.822,2,0,50.25,,,,NaN,,,,0 / 0,17309,2018-11-09 17:06:16:293
-4.568,-4.003,9.079,20,0,62.41,,,,NaN,,,,0 / 0,17408,2018-11-09 17:06:16:392
-4.194,-5.966,8.36,18,0,62.41,,,,NaN,,,,0 / 0,17508,2018-11-09 17:06:16:492
-2.614,-8.226,5.2,16,0,62.41,,,,NaN,,,,0 / 0,17608,2018-11-09 17:06:16:592
-2.317,-7.987,1.599,11,0,61.35,,,,NaN,,,,0 / 0,17708,2018-11-09 17:06:16:692
-2.212,-5.439,2.968,8,0,61.35,,,,NaN,,,,0 / 0,17808,2018-11-09 17:06:16:792
-1.647,-7.077,1.896,14,0,61.35,,,,NaN,,,,0 / 0,17908,2018-11-09 17:06:16:892
-2.375,-11.463,3.323,22,0,54.64,,,,NaN,,,,0 / 0,18008,2018-11-09 17:06:16:992
0.114,-9.5,-0.718,24,0,54.64,,,,NaN,,,,0 / 0,18109,2018-11-09 17:06:17:093
-1.551,-9.376,0.957,24,0,54.64,,,,NaN,,,,0 / 0,18208,2018-11-09 17:06:17:192
-2.25,-9.127,1.637,18,0,58.22,,,,NaN,,,,0 / 0,18308,2018-11-09 17:06:17:292
-1.714,-7.91,1.81,9,0,58.22,,,,NaN,,,,0 / 0,18408,2018-11-09 17:06:17:392
-2.317,-7.91,1.005,2,0,58.22,,,,NaN,,,,0 / 0,18508,2018-11-09 17:06:17:492
-1.494,-7.297,4.865,18,0,58.22,,,,NaN,,,,0 / 0,18608,2018-11-09 17:06:17:592
-2.748,-7.02,7.642,16,0,37.92,,,,NaN,,,,0 / 0,18708,2018-11-09 17:06:17:692
-4.031,-4.348,8.265,10,0,37.92,,,,NaN,,,,0 / 0,18808,2018-11-09 17:06:17:792
-3.955,-0.699,9.289,14,0,37.92,,,,NaN,,,,0 / 0,18909,2018-11-09 17:06:17:893
-4.644,-1.484,10.563,24,0,49.77,,,,NaN,,,,0 / 0,19008,2018-11-09 17:06:17:992
-5.66,-0.747,11.138,6,0,49.77,,,,NaN,,,,0 / 0,19109,2018-11-09 17:06:18:093
-5.803,-1.043,12.431,17,0,49.77,,,,NaN,,,,0 / 0,19208,2018-11-09 17:06:18:192
-4.731,-3.352,9.05,13,0,61.11,,,,NaN,,,,0 / 0,19308,2018-11-09 17:06:18:292
-4.846,-4.539,7.786,3,0,61.11,,,,NaN,,,,0 / 0,19408,2018-11-09 17:06:18:392
-3.735,-6.311,6.502,31,0,61.11,,,,NaN,,,,0 / 0,19508,2018-11-09 17:06:18:492
-3.38,-9.002,4.692,14,0,59.99,,,,NaN,,,,0 / 0,19608,2018-11-09 17:06:18:592
-2.011,-7.202,2.681,17,0,59.99,,,,NaN,,,,0 / 0,19708,2018-11-09 17:06:18:692
-1.944,-6.426,3.792,25,0,59.99,,,,NaN,,,,0 / 0,19808,2018-11-09 17:06:18:792
-3.122,-11.119,2.174,23,0,54.97,,,,NaN,,,,0 / 0,19908,2018-11-09 17:06:18:892
-0.517,-9.376,-0.335,9,0,54.97,,,,NaN,,,,0 / 0,20008,2018-11-09 17:06:18:992
-1.982,-10.103,1.58,9,0,54.97,,,,NaN,,,,0 / 0,20108,2018-11-09 17:06:19:092
-1.743,-9.414,1.273,0,0,58.34,,,,NaN,,,,0 / 0,20208,2018-11-09 17:06:19:192
-0.737,-8.044,2.059,21,0,58.34,,,,NaN,,,,0 / 0,20308,2018-11-09 17:06:19:292
0.344,-7.958,1.589,0,0,58.34,,,,NaN,,,,0 / 0,20408,2018-11-09 17:06:19:392
-1.187,-7.91,6.244,3,0,36.35,,,,NaN,,,,0 / 0,20508,2018-11-09 17:06:19:492
-2.911,-5.88,7.546,7,0,36.35,,,,NaN,,,,0 / 0,20608,2018-11-09 17:06:19:592
-6.56,-3.419,7.106,25,0,36.35,,,,NaN,,,,0 / 0,20708,2018-11-09 17:06:19:692
-7.307,-3.438,10.324,11,0,48.93,,,,NaN,,,,0 / 0,20808,2018-11-09 17:06:19:792
-5.334,-1.752,10.668,21,0,48.93,,,,NaN,,,,0 / 0,20908,2018-11-09 17:06:19:892
-6.464,-0.804,12.306,7,0,48.93,,,,NaN,,,,0 / 0,21009,2018-11-09 17:06:19:993
-6.349,-1.819,10.678,1,0,48.93,,,,NaN,,,,0 / 0,21108,2018-11-09 17:06:20:092
-6.033,-2.624,10.381,11,0,60.64,,,,NaN,,,,0 / 0,21208,2018-11-09 17:06:20:192
-4.146,-4.874,8.035,0,0,60.64,,,,NaN,,,,0 / 0,21309,2018-11-09 17:06:20:293
-3.543,-7.067,6.818,19,0,60.64,,,,NaN,,,,0 / 0,21408,2018-11-09 17:06:20:392
-3.735,-9.27,4.434,20,0,53.4,,,,NaN,,,,0 / 0,21508,2018-11-09 17:06:20:492
-1.838,-6.502,2.892,16,0,53.4,,,,NaN,,,,0 / 0,21608,2018-11-09 17:06:20:592
-2.068,-7.872,3.371,8,0,53.4,,,,NaN,,,,0 / 0,21708,2018-11-09 17:06:20:692
-3.399,-10.544,2.106,27,0,54.36,,,,NaN,,,,0 / 0,21809,2018-11-09 17:06:20:793
-0.622,-9.634,0.22,15,0,54.36,,,,NaN,,,,0 / 0,21909,2018-11-09 17:06:20:893
-2.614,-9.826,1.743,9,0,54.36,,,,NaN,,,,0 / 0,22009,2018-11-09 17:06:20:993
-2.432,-8.791,2.078,5,0,58.14,,,,NaN,,,,0 / 0,22108,2018-11-09 17:06:21:092
-1.426,-7.585,0.249,2,0,58.14,,,,NaN,,,,0 / 0,22208,2018-11-09 17:06:21:192
-4.673,-8.025,1.053,11,0,58.14,,,,NaN,,,,0 / 0,22308,2018-11-09 17:06:21:292
-2.298,-7.249,4.865,13,0,44.74,,,,NaN,,,,0 / 0,22408,2018-11-09 17:06:21:392
-1.034,-5.123,5.64,3,0,44.74,,,,NaN,,,,0 / 0,22508,2018-11-09 17:06:21:492
-4.252,-4.348,8.312,17,0,44.74,,,,NaN,,,,0 / 0,22611,2018-11-09 17:06:21:595
-6.857,-4.798,9.807,15,0,47.75,,,,NaN,,,,0 / 0,22708,2018-11-09 17:06:21:692
-6.713,-0.526,12.297,14,0,47.75,,,,NaN,,,,0 / 0,22808,2018-11-09 17:06:21:792
-5.717,-0.469,10.008,14,0,47.75,,,,NaN,,,,0 / 0,22909,2018-11-09 17:06:21:893
-6.818,-0.9,13.101,24,0,60.42,,,,NaN,,,,0 / 0,23008,2018-11-09 17:06:21:992
-6.368,-3.045,11.061,8,0,60.42,,,,NaN,,,,0 / 0,23108,2018-11-09 17:06:22:092
-5.497,-4.855,9.443,31,0,60.42,,,,NaN,,,,0 / 0,23208,2018-11-09 17:06:22:192
-3.936,-5.583,5.324,9,0,56.96,,,,NaN,,,,0 / 0,23309,2018-11-09 17:06:22:293
-3.984,-8.14,4.558,16,0,56.96,,,,NaN,,,,0 / 0,23408,2018-11-09 17:06:22:392
-3.007,-8.016,4.194,4,0,56.96,,,,NaN,,,,0 / 0,23508,2018-11-09 17:06:22:492
-2.135,-8.284,2.614,18,0,56.96,,,,NaN,,,,0 / 0,23608,2018-11-09 17:06:22:592
-2.403,-8.504,2.001,17,0,51.75,,,,NaN,,,,0 / 0,23708,2018-11-09 17:06:22:692
-2.643,-12.268,1.838,16,0,51.75,,,,NaN,,,,0 / 0,23808,2018-11-09 17:06:22:792
-2.442,-9.213,0.268,20,0,51.75,,,,NaN,,,,0 / 0,23909,2018-11-09 17:06:22:893
-1.158,-9.538,1.139,15,0,55.94,,,,NaN,,,,0 / 0,24008,2018-11-09 17:06:22:992
-2.585,-9.634,0.948,15,0,55.94,,,,NaN,,,,0 / 0,24108,2018-11-09 17:06:23:092
-2.135,-8.887,3.026,11,0,55.94,,,,NaN,,,,0 / 0,24208,2018-11-09 17:06:23:192
-3.304,-8.016,5.075,11,0,48.25,,,,NaN,,,,0 / 0,24308,2018-11-09 17:06:23:292
-1.944,-4.28,5.784,26,0,48.25,,,,NaN,,,,0 / 0,24408,2018-11-09 17:06:23:392
-5.966,-3.744,8.945,11,0,48.25,,,,NaN,,,,0 / 0,24508,2018-11-09 17:06:23:492
-5.334,-4.549,10.85,8,0,46.66,,,,NaN,,,,0 / 0,24608,2018-11-09 17:06:23:592
-5.746,-2.528,11.732,1,0,46.66,,,,NaN,,,,0 / 0,24708,2018-11-09 17:06:23:692
-5.717,-0.852,12.383,13,0,46.66,,,,NaN,,,,0 / 0,24808,2018-11-09 17:06:23:792
-5.526,-0.785,12.038,5,0,60.93,,,,NaN,,,,0 / 0,24908,2018-11-09 17:06:23:892
-5.947,-2.068,9.941,13,0,60.93,,,,NaN,,,,0 / 0,25008,2018-11-09 17:06:23:992
-4.98,-3.917,8.676,1,0,60.93,,,,NaN,,,,0 / 0,25108,2018-11-09 17:06:24:092
-5.487,-4.865,7.68,19,0,60.93,,,,NaN,,,,0 / 0,25209,2018-11-09 17:06:24:193
-4.338,-7.048,7.058,14,0,48.21,,,,NaN,,,,0 / 0,25309,2018-11-09 17:06:24:293
-2.93,-8.293,3.083,21,0,48.21,,,,NaN,,,,0 / 0,25408,2018-11-09 17:06:24:392
-1.436,-6.972,2.576,15,0,48.21,,,,NaN,,,,0 / 0,25508,2018-11-09 17:06:24:492
-2.557,-8.523,2.777,7,0,56.57,,,,NaN,,,,0 / 0,25608,2018-11-09 17:06:24:592
-2.221,-10.668,0.842,25,0,56.57,,,,NaN,,,,0 / 0,25708,2018-11-09 17:06:24:692
-1.762,-9.251,0.239,26,0,56.57,,,,NaN,,,,0 / 0,25808,2018-11-09 17:06:24:792
-2.7,-9.874,2.26,7,0,53.64,,,,NaN,,,,0 / 0,25909,2018-11-09 17:06:24:893
-2.231,-7.364,1.168,15,0,53.64,,,,NaN,,,,0 / 0,26008,2018-11-09 17:06:24:992
-4.778,-7.259,1.359,10,0,53.64,,,,NaN,,,,0 / 0,26108,2018-11-09 17:06:25:092
-2.059,-7.757,2.432,20,0,45.8,,,,NaN,,,,0 / 0,26209,2018-11-09 17:06:25:193
-3.007,-5.535,6.378,21,0,45.8,,,,NaN,,,,0 / 0,26308,2018-11-09 17:06:25:292
-4.328,-4.625,6.876,9,0,45.8,,,,NaN,,,,0 / 0,26409,2018-11-09 17:06:25:393
-4.721,-2.365,9.749,7,0,50.16,,,,NaN,,,,0 / 0,26508,2018-11-09 17:06:25:492
-5.238,-2.758,11.348,1,0,50.16,,,,NaN,,,,0 / 0,26609,2018-11-09 17:06:25:593
-4.472,-1.34,10.123,16,0,50.16,,,,NaN,,,,0 / 0,26709,2018-11-09 17:06:25:693
-5.095,-1.13,12.546,10,0,58.94,,,,NaN,,,,0 / 0,26808,2018-11-09 17:06:25:792
-5.468,-2.059,10.621,0,0,58.94,,,,NaN,,,,0 / 0,26909,2018-11-09 17:06:25:893
-5.42,-3.419,8.964,21,0,58.94,,,,NaN,,,,0 / 0,27008,2018-11-09 17:06:25:992
-5.037,-4.913,7.767,8,0,54.82,,,,NaN,,,,0 / 0,27108,2018-11-09 17:06:26:092
-2.288,-7.767,5.478,24,0,54.82,,,,NaN,,,,0 / 0,27208,2018-11-09 17:06:26:192
-2.442,-7.604,4.185,13,0,54.82,,,,NaN,,,,0 / 0,27308,2018-11-09 17:06:26:292
-1.541,-8.14,1.944,11,0,53.93,,,,NaN,,,,0 / 0,27408,2018-11-09 17:06:26:392
-1.857,-7.642,2.394,16,0,53.93,,,,NaN,,,,0 / 0,27508,2018-11-09 17:06:26:492
-2.25,-10.659,1.781,18,0,53.93,,,,NaN,,,,0 / 0,27608,2018-11-09 17:06:26:592
-2.231,-9.136,-0.268,5,0,52.38,,,,NaN,,,,0 / 0,27708,2018-11-09 17:06:26:692
-1.714,-10.228,1.388,19,0,52.38,,,,NaN,,,,0 / 0,27808,2018-11-09 17:06:26:792
-2.777,-8.638,2.25,16,0,52.38,,,,NaN,,,,0 / 0,27908,2018-11-09 17:06:26:892
-0.747,-7.23,-1.254,15,0,52.38,,,,NaN,,,,0 / 0,28008,2018-11-09 17:06:26:992
-3.955,-7.671,3.725,15,0,50.12,,,,NaN,,,,0 / 0,28108,2018-11-09 17:06:27:092
-0.124,-6.684,5.133,14,0,50.12,,,,NaN,,,,0 / 0,28208,2018-11-09 17:06:27:192
-3.907,-4.893,7.767,4,0,50.12,,,,NaN,,,,0 / 0,28308,2018-11-09 17:06:27:292
-6.014,-4.156,9.155,18,0,48.82,,,,NaN,,,,0 / 0,28408,2018-11-09 17:06:27:392
-5.564,-2.384,10.419,13,0,48.82,,,,NaN,,,,0 / 0,28508,2018-11-09 17:06:27:492
-5.573,-1.398,11.674,19,0,48.82,,,,NaN,,,,0 / 0,28608,2018-11-09 17:06:27:592
-4.884,-0.498,12.143,12,0,57.4,,,,NaN,,,,0 / 0,28708,2018-11-09 17:06:27:692
-5.889,-1.695,10.525,11,0,57.4,,,,NaN,,,,0 / 0,28809,2018-11-09 17:06:27:793
-5.918,-3.189,9.165,17,0,57.4,,,,NaN,,,,0 / 0,28908,2018-11-09 17:06:27:892
-3.428,-5.142,7.182,7,0,64.48,,,,NaN,,,,0 / 0,29008,2018-11-09 17:06:27:992
-3.237,-7.987,4.759,7,0,64.48,,,,NaN,,,,0 / 0,29109,2018-11-09 17:06:28:093
-2.882,-7.316,3.802,10,0,64.48,,,,NaN,,,,0 / 0,29208,2018-11-09 17:06:28:192
-1.944,-7.709,2.087,10,0,62.98,,,,NaN,,,,0 / 0,29309,2018-11-09 17:06:28:293
-2.097,-6.617,3.792,12,0,62.98,,,,NaN,,,,0 / 0,29409,2018-11-09 17:06:28:393
-2.145,-11.684,0.21,13,0,62.98,,,,NaN,,,,0 / 0,29508,2018-11-09 17:06:28:492
-1.312,-8.724,2.624,18,0,55.3,,,,NaN,,,,0 / 0,29608,2018-11-09 17:06:28:592
-1.704,-10.151,0.363,12,0,55.3,,,,NaN,,,,0 / 0,29708,2018-11-09 17:06:28:692
-0.191,-7.47,1.379,7,0,55.3,,,,NaN,,,,0 / 0,29808,2018-11-09 17:06:28:792
-1.245,-8.676,4.855,10,0,53.33,,,,NaN,,,,0 / 0,29908,2018-11-09 17:06:28:892
-2.212,-7.039,4.941,12,0,53.33,,,,NaN,,,,0 / 0,30008,2018-11-09 17:06:28:992
-3.505,-7.202,6.158,14,0,53.33,,,,NaN,,,,0 / 0,30109,2018-11-09 17:06:29:093
-4.51,-5.296,8.188,4,0,45.37,,,,NaN,,,,0 / 0,30208,2018-11-09 17:06:29:192
-5.075,-2.652,8.715,26,0,45.37,,,,NaN,,,,0 / 0,30309,2018-11-09 17:06:29:293
-3.869,-4.577,10.726,8,0,45.37,,,,NaN,,,,0 / 0,30409,2018-11-09 17:06:29:393
-5.497,0.095,9.864,13,0,57.08,,,,NaN,,,,0 / 0,30509,2018-11-09 17:06:29:493
-5.535,-0.201,12.795,9,0,57.08,,,,NaN,,,,0 / 0,30608,2018-11-09 17:06:29:592
-6.589,-1.599,11.099,20,0,57.08,,,,NaN,,,,0 / 0,30708,2018-11-09 17:06:29:692
-6.052,-2.011,9.787,20,0,57.08,,,,NaN,,,,0 / 0,30808,2018-11-09 17:06:29:792
-4.405,-3.964,7.968,15,0,63,,,,NaN,,,,0 / 0,30908,2018-11-09 17:06:29:892
-3.878,-6.349,7.795,0,0,63,,,,NaN,,,,0 / 0,31009,2018-11-09 17:06:29:993
-3.964,-8.753,4.233,8,0,63,,,,NaN,,,,0 / 0,31108,2018-11-09 17:06:30:092
-2.557,-8.178,2.681,0,0,60.69,,,,NaN,,,,0 / 0,31209,2018-11-09 17:06:30:193
-1.446,-6.665,3.677,16,0,60.69,,,,NaN,,,,0 / 0,31308,2018-11-09 17:06:30:292
-4.252,-10.295,0.21,14,0,60.69,,,,NaN,,,,0 / 0,31408,2018-11-09 17:06:30:392
0.249,-11.32,-0.21,3,0,54.68,,,,NaN,,,,0 / 0,31508,2018-11-09 17:06:30:492
-2.509,-9.462,0.823,8,0,54.68,,,,NaN,,,,0 / 0,31608,2018-11-09 17:06:30:592
-0.727,-9.941,1.139,2,0,54.68,,,,NaN,,,,0 / 0,31708,2018-11-09 17:06:30:692
-1.8,-8.14,3.821,2,0,56.23,,,,NaN,,,,0 / 0,31809,2018-11-09 17:06:30:793
0.229,-8.648,3.035,12,0,56.23,,,,NaN,,,,0 / 0,31908,2018-11-09 17:06:30:892
-0.737,-8.849,3.141,10,0,56.23,,,,NaN,,,,0 / 0,32009,2018-11-09 17:06:30:993
-3.773,-7.661,4.52,11,0,41.4,,,,NaN,,,,0 / 0,32108,2018-11-09 17:06:31:092
-4.194,-6.205,7.7,6,0,41.4,,,,NaN,,,,0 / 0,32208,2018-11-09 17:06:31:192
-4.616,-3.227,7.996,18,0,41.4,,,,NaN,,,,0 / 0,32308,2018-11-09 17:06:31:292
-5.775,-1.676,10.352,17,0,49.1,,,,NaN,,,,0 / 0,32408,2018-11-09 17:06:31:392
-6.598,-0.067,9.96,19,0,49.1,,,,NaN,,,,0 / 0,32508,2018-11-09 17:06:31:492
-5.554,-0.67,12.182,14,0,49.1,,,,NaN,,,,0 / 0,32608,2018-11-09 17:06:31:592
-5.506,-0.986,12.182,17,0,49.1,,,,NaN,,,,0 / 0,32708,2018-11-09 17:06:31:692
-6.244,-2.853,9.835,12,0,62.84,,,,NaN,,,,0 / 0,32808,2018-11-09 17:06:31:792
-4.395,-3.897,8.801,9,0,62.84,,,,NaN,,,,0 / 0,32910,2018-11-09 17:06:31:894
-5.066,-5.296,7.278,28,0,62.84,,,,NaN,,,,0 / 0,33008,2018-11-09 17:06:31:992
-2.806,-9.385,3.792,2,0,58.68,,,,NaN,,,,0 / 0,33108,2018-11-09 17:06:32:092
-2.183,-7.441,2.672,6,0,58.68,,,,NaN,,,,0 / 0,33208,2018-11-09 17:06:32:192
-1.752,-6.225,2.796,18,0,58.68,,,,NaN,,,,0 / 0,33308,2018-11-09 17:06:32:292
-2.413,-9.902,0.612,18,0,54.45,,,,NaN,,,,0 / 0,33408,2018-11-09 17:06:32:392
-1.072,-10.017,1.417,12,0,54.45,,,,NaN,,,,0 / 0,33508,2018-11-09 17:06:32:492
-1.264,-8.839,-0.019,2,0,54.45,,,,NaN,,,,0 / 0,33608,2018-11-09 17:06:32:592
-2.336,-8.791,4.415,16,0,54.45,,,,NaN,,,,0 / 0,33709,2018-11-09 17:06:32:693
-0.794,-9.395,3.083,15,0,57.83,,,,NaN,,,,0 / 0,33808,2018-11-09 17:06:32:792
-2.767,-7.747,5.305,7,0,57.83,,,,NaN,,,,0 / 0,33908,2018-11-09 17:06:32:892
-2.413,-6.742,7.422,1,0,57.83,,,,NaN,,,,0 / 0,34008,2018-11-09 17:06:32:992
-3.562,-3.189,6.847,2,0,43.57,,,,NaN,,,,0 / 0,34108,2018-11-09 17:06:33:092
-5.717,-5.114,8.791,21,0,43.57,,,,NaN,,,,0 / 0,34208,2018-11-09 17:06:33:192
-5.832,1.091,7.115,0,0,43.57,,,,NaN,,,,0 / 0,34308,2018-11-09 17:06:33:292
-4.874,-1.245,13.609,30,0,51.61,,,,NaN,,,,0 / 0,34408,2018-11-09 17:06:33:392
-6.387,-1.608,11.885,32,0,51.61,,,,NaN,,,,0 / 0,34508,2018-11-09 17:06:33:492
-6.368,-2.403,10.372,6,0,51.61,,,,NaN,,,,0 / 0,34608,2018-11-09 17:06:33:592
-3.447,-3.85,8.6,25,0,63.76,,,,NaN,,,,0 / 0,34708,2018-11-09 17:06:33:692
-4.721,-5.573,6.924,0,0,63.76,,,,NaN,,,,0 / 0,34808,2018-11-09 17:06:33:792
-2.806,-9.117,4.328,4,0,63.76,,,,NaN,,,,0 / 0,34908,2018-11-09 17:06:33:892
-2.135,-8.111,3.131,0,0,59.32,,,,NaN,,,,0 / 0,35008,2018-11-09 17:06:33:992
-1.695,-7.518,2.748,0,0,59.32,,,,NaN,,,,0 / 0,35108,2018-11-09 17:06:34:092
-2.767,-8.705,1.359,21,0,59.32,,,,NaN,,,,0 / 0,35208,2018-11-09 17:06:34:192
-0.076,-11.042,0.229,9,0,54.42,,,,NaN,,,,0 / 0,35309,2018-11-09 17:06:34:293
-1.925,-9.04,0.363,24,0,54.42,,,,NaN,,,,0 / 0,35408,2018-11-09 17:06:34:392
-0.679,-9.711,0.296,15,0,54.42,,,,NaN,,,,0 / 0,35508,2018-11-09 17:06:34:492
-1.379,-9.337,1.819,12,0,56.05,,,,NaN,,,,0 / 0,35608,2018-11-09 17:06:34:592
-1.819,-7.776,1.245,13,0,56.05,,,,NaN,,,,0 / 0,35709,2018-11-09 17:06:34:693
-0.814,-8.14,0.881,15,0,56.05,,,,NaN,,,,0 / 0,35809,2018-11-09 17:06:34:793
-5.028,-7.977,2.614,20,0,40.87,,,,NaN,,,,0 / 0,35908,2018-11-09 17:06:34:892
-4.137,-6.483,4.893,1,0,40.87,,,,NaN,,,,0 / 0,36008,2018-11-09 17:06:34:992
-2.93,-6.541,7.029,17,0,40.87,,,,NaN,,,,0 / 0,36108,2018-11-09 17:06:35:092
-3.217,-4.137,6.981,19,0,63.53,,,,NaN,,,,0 / 0,36208,2018-11-09 17:06:35:192
-5.717,-4.75,10.151,22,0,63.53,,,,NaN,,,,0 / 0,36308,2018-11-09 17:06:35:292
-7.039,-1.867,11.779,3,0,63.53,,,,NaN,,,,0 / 0,36409,2018-11-09 17:06:35:393
-7.202,-1.503,11.502,13,0,63.32,,,,NaN,,,,0 / 0,36509,2018-11-09 17:06:35:493
-6.493,-2.126,10.678,2,0,63.32,,,,NaN,,,,0 / 0,36610,2018-11-09 17:06:35:594
-5.257,-2.844,9.146,7,0,63.32,,,,NaN,,,,0 / 0,36709,2018-11-09 17:06:35:693
-4.836,-4.462,7.259,23,0,54.2,,,,NaN,,,,0 / 0,36808,2018-11-09 17:06:35:792
-4.702,-7.24,6.838,20,0,54.2,,,,NaN,,,,0 / 0,36908,2018-11-09 17:06:35:892
-3.792,-6.608,5.2,13,0,54.2,,,,NaN,,,,0 / 0,37008,2018-11-09 17:06:35:992
-2.231,-7.221,3.265,23,0,62.71,,,,NaN,,,,0 / 0,37108,2018-11-09 17:06:36:092
-1.034,-10.496,2.739,2,0,62.71,,,,NaN,,,,0 / 0,37208,2018-11-09 17:06:36:192
-3.639,-8.734,0.191,3,0,62.71,,,,NaN,,,,0 / 0,37308,2018-11-09 17:06:36:292
-1.494,-10.85,1.886,10,0,57.85,,,,NaN,,,,0 / 0,37408,2018-11-09 17:06:36:392
-1.992,-9.241,0.469,7,0,57.85,,,,NaN,,,,0 / 0,37508,2018-11-09 17:06:36:492
-2.097,-8.696,2.068,17,0,57.85,,,,NaN,,,,0 / 0,37609,2018-11-09 17:06:36:593
-3.102,-8.983,0.67,18,0,53.83,,,,NaN,,,,0 / 0,37708,2018-11-09 17:06:36:692
-3.715,-7.259,4.041,10,0,53.83,,,,NaN,,,,0 / 0,37808,2018-11-09 17:06:36:792
-2.719,-7.249,3.754,15,0,53.83,,,,NaN,,,,0 / 0,37908,2018-11-09 17:06:36:892
-3.505,-8.322,8.475,12,0,43.48,,,,NaN,,,,0 / 0,38009,2018-11-09 17:06:36:993
-6.713,-3.62,8.207,20,0,43.48,,,,NaN,,,,0 / 0,38109,2018-11-09 17:06:37:093
-6.742,-1.848,10.534,14,0,43.48,,,,NaN,,,,0 / 0,38208,2018-11-09 17:06:37:192
-4.683,-1.35,11.205,17,0,51.06,,,,NaN,,,,0 / 0,38308,2018-11-09 17:06:37:292
-6.723,-2.413,10.994,13,0,51.06,,,,NaN,,,,0 / 0,38410,2018-11-09 17:06:37:394
-4.999,-2.949,9.213,24,0,51.06,,,,NaN,,,,0 / 0,38509,2018-11-09 17:06:37:493
-4.692,-4.309,9.452,13,0,60.49,,,,NaN,,,,0 / 0,38609,2018-11-09 17:06:37:593
-4.041,-5.142,7.881,4,0,60.49,,,,NaN,,,,0 / 0,38709,2018-11-09 17:06:37:693
-3.486,-8.14,6.531,2,0,60.49,,,,NaN,,,,0 / 0,38810,2018-11-09 17:06:37:794
-3.735,-8.734,3.869,8,0,60.49,,,,NaN,,,,0 / 0,38909,2018-11-09 17:06:37:893
-3.735,-8.734,3.869,8,0,60.49,,,,NaN,,,,0 / 0,39009,2018-11-09 17:06:37:993
-3.735,-8.734,3.869,8,0,60.49,,,,NaN,,,,0 / 0,39110,2018-11-09 17:06:38:094
-3.735,-8.734,3.869,8,0,60.49,,,,NaN,,,,0 / 0,39220,2018-11-09 17:06:38:204
-2.94,-6.972,4.309,14,0,55.52,,,,NaN,,,,0 / 0,39308,2018-11-09 17:06:38:292
-2.403,-9.395,2.604,24,0,55.52,,,,NaN,,,,0 / 0,39409,2018-11-09 17:06:38:393
-2.49,-6.857,4.29,0,0,55.52,,,,NaN,,,,0 / 0,39508,2018-11-09 17:06:38:492
-2.968,-8.839,3.706,18,0,53.41,,,,NaN,,,,0 / 0,39608,2018-11-09 17:06:38:592
-2.25,-7.106,5.439,7,0,53.41,,,,NaN,,,,0 / 0,39708,2018-11-09 17:06:38:692
-3.897,-6.818,7.221,23,0,53.41,,,,NaN,,,,0 / 0,39808,2018-11-09 17:06:38:792
-4.654,-4.28,7.977,10,0,51.95,,,,NaN,,,,0 / 0,39908,2018-11-09 17:06:38:892
-5.727,-4.031,10.237,29,0,51.95,,,,NaN,,,,0 / 0,40008,2018-11-09 17:06:38:992
-5.976,-0.928,12.957,10,0,51.95,,,,NaN,,,,0 / 0,40108,2018-11-09 17:06:39:092
-5.564,-1.58,12.517,14,0,54.8,,,,NaN,,,,0 / 0,40208,2018-11-09 17:06:39:192
-6.177,-1.733,10.017,10,0,54.8,,,,NaN,,,,0 / 0,40308,2018-11-09 17:06:39:292
-3.945,-3.083,9.059,18,0,54.8,,,,NaN,,,,0 / 0,40408,2018-11-09 17:06:39:392
-4.989,-4.989,6.32,7,0,61.51,,,,NaN,,,,0 / 0,40508,2018-11-09 17:06:39:492
-4.252,-9.107,5.209,22,0,61.51,,,,NaN,,,,0 / 0,40609,2018-11-09 17:06:39:593
-2.518,-8.619,2.614,4,0,61.51,,,,NaN,,,,0 / 0,40709,2018-11-09 17:06:39:693
-1.158,-8.734,2.02,7,0,56.97,,,,NaN,,,,0 / 0,40809,2018-11-09 17:06:39:793
-2.94,-8.466,2.509,0,0,56.97,,,,NaN,,,,0 / 0,40909,2018-11-09 17:06:39:893
-1.532,-10.621,1.522,3,0,56.97,,,,NaN,,,,0 / 0,41009,2018-11-09 17:06:39:993
-2.078,-10.707,1.829,6,0,51.57,,,,NaN,,,,0 / 0,41109,2018-11-09 17:06:40:093
-1.455,-9.414,0.612,12,0,51.57,,,,NaN,,,,0 / 0,41209,2018-11-09 17:06:40:193
-2.288,-9.05,2.317,12,0,51.57,,,,NaN,,,,0 / 0,41309,2018-11-09 17:06:40:293
-3.763,-8.226,1.656,15,0,51.57,,,,NaN,,,,0 / 0,41409,2018-11-09 17:06:40:393
-3.802,-7.987,3.093,4,0,52.92,,,,NaN,,,,0 / 0,41508,2018-11-09 17:06:40:492
-4.242,-7.393,4.846,9,0,52.92,,,,NaN,,,,0 / 0,41608,2018-11-09 17:06:40:592
-4.003,-5.066,6.905,6,0,52.92,,,,NaN,,,,0 / 0,41708,2018-11-09 17:06:40:692
-5.056,-2.767,8.858,0,0,44.17,,,,NaN,,,,0 / 0,41808,2018-11-09 17:06:40:792
-6.368,-4.348,11.53,4,0,44.17,,,,NaN,,,,0 / 0,41908,2018-11-09 17:06:40:892
-4.213,-1.608,10.333,26,0,44.17,,,,NaN,,,,0 / 0,42008,2018-11-09 17:06:40:992
-5.956,-1.465,12.996,2,0,53.04,,,,NaN,,,,0 / 0,42108,2018-11-09 17:06:41:092
-6.876,-1.599,10.601,16,0,53.04,,,,NaN,,,,0 / 0,42208,2018-11-09 17:06:41:192
-5.688,-2.729,9.586,4,0,53.04,,,,NaN,,,,0 / 0,42308,2018-11-09 17:06:41:292
-4.692,-4.731,8.226,7,0,65.39,,,,NaN,,,,0 / 0,42409,2018-11-09 17:06:41:393
-5.353,-7.422,6.953,22,0,65.39,,,,NaN,,,,0 / 0,42509,2018-11-09 17:06:41:493
-4.07,-8.456,2.71,10,0,65.39,,,,NaN,,,,0 / 0,42608,2018-11-09 17:06:41:592
-0.718,-7.642,2.308,0,0,57.69,,,,NaN,,,,0 / 0,42708,2018-11-09 17:06:41:692
-2.174,-6.205,2.988,0,0,57.69,,,,NaN,,,,0 / 0,42808,2018-11-09 17:06:41:792
-3.15,-11.894,1.781,1,0,57.69,,,,NaN,,,,0 / 0,42908,2018-11-09 17:06:41:892
-1.838,-10.458,1.953,21,0,53.61,,,,NaN,,,,0 / 0,43009,2018-11-09 17:06:41:993
-0.363,-8.954,-1.455,16,0,53.61,,,,NaN,,,,0 / 0,43109,2018-11-09 17:06:42:093
-0.871,-10.237,1.101,10,0,53.61,,,,NaN,,,,0 / 0,43209,2018-11-09 17:06:42:193
-2.308,-9.356,0.411,26,0,55.32,,,,NaN,,,,0 / 0,43309,2018-11-09 17:06:42:293
-3.447,-7.374,2.681,14,0,55.32,,,,NaN,,,,0 / 0,43409,2018-11-09 17:06:42:393
-4.529,-9.931,0.727,12,0,55.32,,,,NaN,,,,0 / 0,43509,2018-11-09 17:06:42:493
-4.759,-7.316,6.809,12,0,42.33,,,,NaN,,,,0 / 0,43609,2018-11-09 17:06:42:593
-2.585,-5.133,7.91,0,0,42.33,,,,NaN,,,,0 / 0,43709,2018-11-09 17:06:42:693
-5.506,-4.654,7.824,12,0,42.33,,,,NaN,,,,0 / 0,43809,2018-11-09 17:06:42:793
-6.732,-3.668,9.979,14,0,49.46,,,,NaN,,,,0 / 0,43909,2018-11-09 17:06:42:893
-5.573,-1.312,8.274,16,0,49.46,,,,NaN,,,,0 / 0,44009,2018-11-09 17:06:42:993
-6.378,-1.139,11.712,8,0,49.46,,,,NaN,,,,0 / 0,44109,2018-11-09 17:06:43:093
-6.483,-1.925,10.257,23,0,61.59,,,,NaN,,,,0 / 0,44209,2018-11-09 17:06:43:193
-4.903,-3.275,9.663,8,0,61.59,,,,NaN,,,,0 / 0,44309,2018-11-09 17:06:43:293
-4.606,-4.798,8.265,0,0,61.59,,,,NaN,,,,0 / 0,44411,2018-11-09 17:06:43:395
-4.731,-4.089,6.732,18,0,58.06,,,,NaN,,,,0 / 0,44510,2018-11-09 17:06:43:494
-4.242,-7.834,4.874,8,0,58.06,,,,NaN,,,,0 / 0,44609,2018-11-09 17:06:43:593
-2.48,-7.479,2.624,8,0,58.06,,,,NaN,,,,0 / 0,44708,2018-11-09 17:06:43:692
-2.834,-7.02,2.432,8,0,58.06,,,,NaN,,,,0 / 0,44808,2018-11-09 17:06:43:792
-1.857,-7.067,2.652,11,0,55.57,,,,NaN,,,,0 / 0,44908,2018-11-09 17:06:43:892
-1.158,-10.142,1.225,24,0,55.57,,,,NaN,,,,0 / 0,45009,2018-11-09 17:06:43:993
-0.699,-8.791,-2.308,16,0,55.57,,,,NaN,,,,0 / 0,45108,2018-11-09 17:06:44:092
-1.656,-10.621,1.35,12,0,55.57,,,,NaN,,,,0 / 0,45209,2018-11-09 17:06:44:193
-2.078,-9.356,-1.005,17,0,57.68,,,,NaN,,,,0 / 0,45309,2018-11-09 17:06:44:293
-0.612,-7.7,9.165,0,0,57.68,,,,NaN,,,,0 / 0,45409,2018-11-09 17:06:44:393
0.44,-7.68,4.549,6,0,57.68,,,,NaN,,,,0 / 0,45508,2018-11-09 17:06:44:492
-3.035,-7.642,4.386,8,0,49.63,,,,NaN,,,,0 / 0,45608,2018-11-09 17:06:44:592
-3.639,-4.482,6.512,27,0,49.63,,,,NaN,,,,0 / 0,45708,2018-11-09 17:06:44:692
-5.573,-2.279,9.634,5,0,49.63,,,,NaN,,,,0 / 0,45808,2018-11-09 17:06:44:792
-5.995,-2.317,11.597,10,0,52.28,,,,NaN,,,,0 / 0,45908,2018-11-09 17:06:44:892
-6.215,-0.833,13.695,7,0,52.28,,,,NaN,,,,0 / 0,46009,2018-11-09 17:06:44:993
-7,-1.455,11.942,13,0,52.28,,,,NaN,,,,0 / 0,46108,2018-11-09 17:06:45:092
-5.267,-2.758,9.299,19,0,63.21,,,,NaN,,,,0 / 0,46209,2018-11-09 17:06:45:193
-4.98,-3.275,7.719,13,0,63.21,,,,NaN,,,,0 / 0,46309,2018-11-09 17:06:45:293
-3.907,-6.981,6.368,18,0,63.21,,,,NaN,,,,0 / 0,46408,2018-11-09 17:06:45:392
-2.442,-7.872,4.309,9,0,58.18,,,,NaN,,,,0 / 0,46508,2018-11-09 17:06:45:492
-1.168,-7.767,2.585,15,0,58.18,,,,NaN,,,,0 / 0,46609,2018-11-09 17:06:45:593
-2.394,-6.885,3.562,5,0,58.18,,,,NaN,,,,0 / 0,46708,2018-11-09 17:06:45:692
-2.221,-10.937,1.676,12,0,54.68,,,,NaN,,,,0 / 0,46808,2018-11-09 17:06:45:792
-0.861,-8.619,-0.44,22,0,54.68,,,,NaN,,,,0 / 0,46908,2018-11-09 17:06:45:892
-2.183,-9.883,1.58,19,0,54.68,,,,NaN,,,,0 / 0,47008,2018-11-09 17:06:45:992
-1.915,-9.059,1.551,0,0,55.6,,,,NaN,,,,0 / 0,47108,2018-11-09 17:06:46:092
-0.871,-8.217,1.656,17,0,55.6,,,,NaN,,,,0 / 0,47208,2018-11-09 17:06:46:192
-2.739,-8.322,3.045,24,0,55.6,,,,NaN,,,,0 / 0,47309,2018-11-09 17:06:46:293
-2.403,-5.88,4.003,14,0,47.61,,,,NaN,,,,0 / 0,47408,2018-11-09 17:06:46:392
-2.729,-5.248,6.531,25,0,47.61,,,,NaN,,,,0 / 0,47508,2018-11-09 17:06:46:492
-4.913,-2.308,8.169,15,0,47.61,,,,NaN,,,,0 / 0,47608,2018-11-09 17:06:46:592
-4.855,-4.319,10.601,5,0,49.78,,,,NaN,,,,0 / 0,47709,2018-11-09 17:06:46:693
-6.387,-1.426,11.502,11,0,49.78,,,,NaN,,,,0 / 0,47808,2018-11-09 17:06:46:792
-7.489,-1.015,13.245,8,0,49.78,,,,NaN,,,,0 / 0,47908,2018-11-09 17:06:46:892
-6.387,-1.743,11.588,11,0,58.19,,,,NaN,,,,0 / 0,48008,2018-11-09 17:06:46:992
-5.506,-2.806,9.902,11,0,58.19,,,,NaN,,,,0 / 0,48109,2018-11-09 17:06:47:093
-4.405,-4.434,7.527,13,0,58.19,,,,NaN,,,,0 / 0,48209,2018-11-09 17:06:47:193
-4.874,-6.972,6.751,9,0,59.66,,,,NaN,,,,0 / 0,48309,2018-11-09 17:06:47:293
-2.308,-9.098,3.543,15,0,59.66,,,,NaN,,,,0 / 0,48409,2018-11-09 17:06:47:393
-2.011,-6.55,2.451,11,0,59.66,,,,NaN,,,,0 / 0,48509,2018-11-09 17:06:47:493
-3.782,-7.173,3.064,20,0,56.08,,,,NaN,,,,0 / 0,48609,2018-11-09 17:06:47:593
-1.369,-11.032,1.608,6,0,56.08,,,,NaN,,,,0 / 0,48709,2018-11-09 17:06:47:693
-1.637,-11.013,0.162,16,0,56.08,,,,NaN,,,,0 / 0,48809,2018-11-09 17:06:47:793
-4.041,-9.864,5.056,3,0,55.53,,,,NaN,,,,0 / 0,48909,2018-11-09 17:06:47:893
-1.771,-8.341,-0.469,25,0,55.53,,,,NaN,,,,0 / 0,49009,2018-11-09 17:06:47:993
-2.308,-8.533,-0.047,11,0,55.53,,,,NaN,,,,0 / 0,49109,2018-11-09 17:06:48:093
-5.334,-7.489,2.853,13,0,52.19,,,,NaN,,,,0 / 0,49209,2018-11-09 17:06:48:193
-2.624,-6.435,6.253,8,0,52.19,,,,NaN,,,,0 / 0,49309,2018-11-09 17:06:48:293
-0.909,-4.51,6.761,8,0,52.19,,,,NaN,,,,0 / 0,49408,2018-11-09 17:06:48:392
-4.673,-4.558,8.418,4,0,43.36,,,,NaN,,,,0 / 0,49508,2018-11-09 17:06:48:492
-6.656,-3.409,10.151,19,0,43.36,,,,NaN,,,,0 / 0,49608,2018-11-09 17:06:48:592
-6.033,-2.183,11.54,22,0,43.36,,,,NaN,,,,0 / 0,49709,2018-11-09 17:06:48:693
-6.598,-0.622,10.276,26,0,54.44,,,,NaN,,,,0 / 0,49808,2018-11-09 17:06:48:792
-6.091,-1.589,9.883,21,0,54.44,,,,NaN,,,,0 / 0,49908,2018-11-09 17:06:48:892
-6.292,-2.892,8.906,17,0,54.44,,,,NaN,,,,0 / 0,50008,2018-11-09 17:06:48:992
-4.118,-4.204,6.847,2,0,61.16,,,,NaN,,,,0 / 0,50108,2018-11-09 17:06:49:092
-5.612,-7.182,4.453,8,0,61.16,,,,NaN,,,,0 / 0,50208,2018-11-09 17:06:49:192
-3.61,-8.59,3.648,10,0,61.16,,,,NaN,,,,0 / 0,50309,2018-11-09 17:06:49:293
-3.055,-6.866,2.681,17,0,55.1,,,,NaN,,,,0 / 0,50409,2018-11-09 17:06:49:393
-1.867,-7.115,3.888,11,0,55.1,,,,NaN,,,,0 / 0,50509,2018-11-09 17:06:49:493
-3.438,-11.952,0.277,11,0,55.1,,,,NaN,,,,0 / 0,50609,2018-11-09 17:06:49:593
-1.225,-11.291,1.302,4,0,53.22,,,,NaN,,,,0 / 0,50709,2018-11-09 17:06:49:693
-2.126,-8.954,0.45,25,0,53.22,,,,NaN,,,,0 / 0,50809,2018-11-09 17:06:49:793
-0.555,-9.912,-0.22,17,0,53.22,,,,NaN,,,,0 / 0,50910,2018-11-09 17:06:49:894
-1.963,-9.423,1.608,3,0,51.25,,,,NaN,,,,0 / 0,51009,2018-11-09 17:06:49:993
-2.719,-7.47,0.976,17,0,51.25,,,,NaN,,,,0 / 0,51109,2018-11-09 17:06:50:093
-3.227,-9.28,3.064,26,0,51.25,,,,NaN,,,,0 / 0,51209,2018-11-09 17:06:50:193
-2.078,-7.431,3.821,10,0,44.45,,,,NaN,,,,0 / 0,51309,2018-11-09 17:06:50:293
-5.995,-5.152,7.096,10,0,44.45,,,,NaN,,,,0 / 0,51409,2018-11-09 17:06:50:393
-6.301,-2.001,7.901,27,0,44.45,,,,NaN,,,,0 / 0,51509,2018-11-09 17:06:50:493
-8.169,-2.432,10.908,17,0,54.06,,,,NaN,,,,0 / 0,51609,2018-11-09 17:06:50:593
-7.269,-2.403,11.272,24,0,54.06,,,,NaN,,,,0 / 0,51709,2018-11-09 17:06:50:693
-6.1,-2.308,10.496,17,0,54.06,,,,NaN,,,,0 / 0,51809,2018-11-09 17:06:50:793
-4.74,-3.438,10.305,15,0,59.17,,,,NaN,,,,0 / 0,51909,2018-11-09 17:06:50:893
-5.995,-3.074,9.031,12,0,59.17,,,,NaN,,,,0 / 0,52009,2018-11-09 17:06:50:993
-5.248,-5.219,6.991,14,0,59.17,,,,NaN,,,,0 / 0,52109,2018-11-09 17:06:51:093
-3.514,-9.376,3.409,18,0,59.17,,,,NaN,,,,0 / 0,52209,2018-11-09 17:06:51:193
-1.915,-7.575,1.963,13,0,51.84,,,,NaN,,,,0 / 0,52309,2018-11-09 17:06:51:293
-2.174,-6.196,2.815,26,0,51.84,,,,NaN,,,,0 / 0,52409,2018-11-09 17:06:51:393
-4.491,-11.664,1.915,8,0,51.84,,,,NaN,,,,0 / 0,52509,2018-11-09 17:06:51:493
-1.321,-8.638,0.268,14,0,54.12,,,,NaN,,,,0 / 0,52609,2018-11-09 17:06:51:593
-1.331,-9.28,-0.028,15,0,54.12,,,,NaN,,,,0 / 0,52709,2018-11-09 17:06:51:693
-1.35,-9.347,1.235,12,0,54.12,,,,NaN,,,,0 / 0,52809,2018-11-09 17:06:51:793
-3.102,-8.82,5.152,11,0,55.26,,,,NaN,,,,0 / 0,52909,2018-11-09 17:06:51:893
-4.022,-6.924,5.028,9,0,55.26,,,,NaN,,,,0 / 0,53009,2018-11-09 17:06:51:993
-0.21,-7.728,5.382,13,0,55.26,,,,NaN,,,,0 / 0,53108,2018-11-09 17:06:52:092
-4.348,-4.491,6.933,9,0,47.78,,,,NaN,,,,0 / 0,53210,2018-11-09 17:06:52:194
-5.152,-6.004,11.004,17,0,47.78,,,,NaN,,,,0 / 0,53309,2018-11-09 17:06:52:293
-4.549,-1.599,11.53,17,0,47.78,,,,NaN,,,,0 / 0,53409,2018-11-09 17:06:52:393
-4.855,0.44,11.703,22,0,52.82,,,,NaN,,,,0 / 0,53509,2018-11-09 17:06:52:493
-6.454,-0.996,11.339,16,0,52.82,,,,NaN,,,,0 / 0,53609,2018-11-09 17:06:52:593
-5.87,-2.461,9.605,5,0,52.82,,,,NaN,,,,0 / 0,53709,2018-11-09 17:06:52:693
-3.725,-5.018,8.198,13,0,63.39,,,,NaN,,,,0 / 0,53809,2018-11-09 17:06:52:793
-2.384,-6.589,6.895,12,0,63.39,,,,NaN,,,,0 / 0,53909,2018-11-09 17:06:52:893
-1.953,-7.498,5.669,16,0,63.39,,,,NaN,,,,0 / 0,54008,2018-11-09 17:06:52:992
-4.3,-4.683,4.798,4,0,61.29,,,,NaN,,,,0 / 0,54109,2018-11-09 17:06:53:093
-1.972,-7.623,2.968,23,0,61.29,,,,NaN,,,,0 / 0,54209,2018-11-09 17:06:53:193
-4.089,-10.64,2.528,5,0,61.29,,,,NaN,,,,0 / 0,54309,2018-11-09 17:06:53:293
-1.407,-8.59,1.053,10,0,50.41,,,,NaN,,,,0 / 0,54409,2018-11-09 17:06:53:393
-4.137,-10.285,3.112,6,0,50.41,,,,NaN,,,,0 / 0,54510,2018-11-09 17:06:53:494
-4.874,-9.768,5.746,16,0,50.41,,,,NaN,,,,0 / 0,54609,2018-11-09 17:06:53:593
-5.621,-6.196,5.028,4,0,58.46,,,,NaN,,,,0 / 0,54709,2018-11-09 17:06:53:693
-2.174,-6.636,6.435,16,0,58.46,,,,NaN,,,,0 / 0,54809,2018-11-09 17:06:53:793
-3.744,-5.583,8.293,33,0,58.46,,,,NaN,,,,0 / 0,54909,2018-11-09 17:06:53:893
-7.632,-3.773,9.012,22,0,52.19,,,,NaN,,,,0 / 0,55009,2018-11-09 17:06:53:993
-5.229,-2.279,13.637,4,0,52.19,,,,NaN,,,,0 / 0,55109,2018-11-09 17:06:54:093
-6.943,-0.114,11.195,11,0,52.19,,,,NaN,,,,0 / 0,55209,2018-11-09 17:06:54:193
-5.535,-1.206,11.406,15,0,63.03,,,,NaN,,,,0 / 0,55309,2018-11-09 17:06:54:293
-6.024,-1.79,9.845,17,0,63.03,,,,NaN,,,,0 / 0,55409,2018-11-09 17:06:54:393
-3.984,-3.514,8.705,17,0,63.03,,,,NaN,,,,0 / 0,55509,2018-11-09 17:06:54:493
-3.792,-5.162,7.451,8,0,56.94,,,,NaN,,,,0 / 0,55609,2018-11-09 17:06:54:593
-3.323,-8.686,4.501,17,0,56.94,,,,NaN,,,,0 / 0,55709,2018-11-09 17:06:54:693
-1.388,-6.684,2.7,17,0,56.94,,,,NaN,,,,0 / 0,55808,2018-11-09 17:06:54:792
-1.254,-7.364,3.227,8,0,56.94,,,,NaN,,,,0 / 0,55909,2018-11-09 17:06:54:893
-4.846,-12.048,1.254,8,0,57.95,,,,NaN,,,,0 / 0,56009,2018-11-09 17:06:54:993
-0.785,-9.893,1.81,28,0,57.95,,,,NaN,,,,0 / 0,56109,2018-11-09 17:06:55:093
-2.662,-9.174,-1.053,8,0,57.95,,,,NaN,,,,0 / 0,56209,2018-11-09 17:06:55:193
-2.097,-9.261,2.566,20,0,56.83,,,,NaN,,,,0 / 0,56309,2018-11-09 17:06:55:293
-0.948,-7.154,0.689,6,0,56.83,,,,NaN,,,,0 / 0,56409,2018-11-09 17:06:55:393
-1.101,-6.713,4.29,20,0,56.83,,,,NaN,,,,0 / 0,56509,2018-11-09 17:06:55:493
-2.547,-6.522,5.42,25,0,42.62,,,,NaN,,,,0 / 0,56609,2018-11-09 17:06:55:593
-5.583,-6.043,8.964,12,0,42.62,,,,NaN,,,,0 / 0,56709,2018-11-09 17:06:55:693
-5.123,-2.997,10.525,0,0,42.62,,,,NaN,,,,0 / 0,56809,2018-11-09 17:06:55:793
-6.426,-2.03,11.645,21,0,50.96,,,,NaN,,,,0 / 0,56909,2018-11-09 17:06:55:893
-5.018,-2.145,11.454,11,0,50.96,,,,NaN,,,,0 / 0,57009,2018-11-09 17:06:55:993
-6.407,-0.938,11.502,6,0,50.96,,,,NaN,,,,0 / 0,57108,2018-11-09 17:06:56:092
-4.549,-2.49,9.079,18,0,63.58,,,,NaN,,,,0 / 0,57209,2018-11-09 17:06:56:193
-4.826,-4.031,7.297,17,0,63.58,,,,NaN,,,,0 / 0,57309,2018-11-09 17:06:56:293
-5.162,-6.158,6.818,6,0,63.58,,,,NaN,,,,0 / 0,57409,2018-11-09 17:06:56:393
-4.137,-9.376,4.52,11,0,62.36,,,,NaN,,,,0 / 0,57509,2018-11-09 17:06:56:493
-1.963,-7.039,2.7,28,0,62.36,,,,NaN,,,,0 / 0,57609,2018-11-09 17:06:56:593
-1.58,-7.642,2.806,10,0,62.36,,,,NaN,,,,0 / 0,57709,2018-11-09 17:06:56:693
-4.07,-11.339,0.871,8,0,57.15,,,,NaN,,,,0 / 0,57809,2018-11-09 17:06:56:793
-0.861,-12.364,0.928,18,0,57.15,,,,NaN,,,,0 / 0,57909,2018-11-09 17:06:56:893
-2.193,-10.142,0.229,17,0,57.15,,,,NaN,,,,0 / 0,58009,2018-11-09 17:06:56:993
-2.614,-9.692,-0.814,5,0,58.39,,,,NaN,,,,0 / 0,58109,2018-11-09 17:06:57:093
2.844,-6.244,-0.306,7,0,58.39,,,,NaN,,,,0 / 0,58209,2018-11-09 17:06:57:193
0.593,-12.105,5.478,34,0,58.39,,,,NaN,,,,0 / 0,58309,2018-11-09 17:06:57:293
-3.217,-1.417,6.138,15,0,49.07,,,,NaN,,,,0 / 0,58408,2018-11-09 17:06:57:392
-2.921,-6.397,7.728,14,0,49.07,,,,NaN,,,,0 / 0,58508,2018-11-09 17:06:57:492
-5.248,-2.959,10.027,16,0,49.07,,,,NaN,,,,0 / 0,58608,2018-11-09 17:06:57:592
-5.995,-2.528,11.195,20,0,53.24,,,,NaN,,,,0 / 0,58708,2018-11-09 17:06:57:692
-4.778,-1.139,12.172,19,0,53.24,,,,NaN,,,,0 / 0,58808,2018-11-09 17:06:57:792
-6.972,-0.9,12.737,28,0,53.24,,,,NaN,,,,0 / 0,58908,2018-11-09 17:06:57:892
-6.177,-2.049,10.563,0,0,62.25,,,,NaN,,,,0 / 0,59008,2018-11-09 17:06:57:992
-4.644,-4.194,8.657,13,0,62.25,,,,NaN,,,,0 / 0,59108,2018-11-09 17:06:58:092
-4.319,-5.152,7.527,13,0,62.25,,,,NaN,,,,0 / 0,59208,2018-11-09 17:06:58:192
-2.585,-6.684,5.631,7,0,57.6,,,,NaN,,,,0 / 0,59310,2018-11-09 17:06:58:294
-1.666,-7.834,3.352,16,0,57.6,,,,NaN,,,,0 / 0,59409,2018-11-09 17:06:58:393
-2.815,-7.422,1.915,24,0,57.6,,,,NaN,,,,0 / 0,59509,2018-11-09 17:06:58:493
-2.174,-7.537,2.729,22,0,53.89,,,,NaN,,,,0 / 0,59609,2018-11-09 17:06:58:593
-4.28,-11.827,-0.756,19,0,53.89,,,,NaN,,,,0 / 0,59709,2018-11-09 17:06:58:693
2.241,-10.151,-1.264,26,0,53.89,,,,NaN,,,,0 / 0,59810,2018-11-09 17:06:58:794
-3.17,-9.51,-0.584,9,0,57.41,,,,NaN,,,,0 / 0,59909,2018-11-09 17:06:58:893
-0.507,-9.835,-0.114,19,0,57.41,,,,NaN,,,,0 / 0,60009,2018-11-09 17:06:58:993
-1.005,-9.213,-0.775,31,0,57.41,,,,NaN,,,,0 / 0,60109,2018-11-09 17:06:59:093
-0.938,-9.596,-0.45,32,0,50.42,,,,NaN,,,,0 / 0,60210,2018-11-09 17:06:59:194
-1.331,-9.414,-0.9,20,0,50.42,,,,NaN,,,,0 / 0,60309,2018-11-09 17:06:59:293
-0.708,-9.471,-0.43,16,0,50.42,,,,NaN,,,,0 / 0,60409,2018-11-09 17:06:59:393
-1.503,-9.787,0.268,22,0,50.42,,,,NaN,,,,0 / 0,60509,2018-11-09 17:06:59:493
-0.651,-9.577,-0.143,11,0,44.78,,,,NaN,,,,0 / 0,60609,2018-11-09 17:06:59:593
-0.852,-9.586,-0.124,3,0,44.78,,,,NaN,,,,0 / 0,60709,2018-11-09 17:06:59:693
-0.938,-9.471,-0.488,17,0,44.78,,,,NaN,,,,0 / 0,60809,2018-11-09 17:06:59:793
-1.024,-9.557,-0.363,28,0,30.53,,,,NaN,,,,0 / 0,60909,2018-11-09 17:06:59:893
-1.187,-9.663,-0.459,15,0,30.53,,,,NaN,,,,0 / 0,61009,2018-11-09 17:06:59:993
-1.043,-9.567,-0.239,5,0,30.53,,,,NaN,,,,0 / 0,61108,2018-11-09 17:07:00:092
-0.986,-9.433,-0.383,19,0,43.1,,,,NaN,,,,0 / 0,61208,2018-11-09 17:07:00:192
-0.881,-9.519,-0.306,0,0,43.1,,,,NaN,,,,0 / 0,61308,2018-11-09 17:07:00:292
-1.005,-9.519,-0.641,13,0,43.1,,,,NaN,,,,0 / 0,61408,2018-11-09 17:07:00:392
-1.168,-9.548,-0.469,2,0,24.29,,,,NaN,,,,0 / 0,61508,2018-11-09 17:07:00:492
-0.775,-9.577,-0.124,5,0,24.29,,,,NaN,,,,0 / 0,61608,2018-11-09 17:07:00:592
-1.11,-9.692,-0.402,6,0,24.29,,,,NaN,,,,0 / 0,61708,2018-11-09 17:07:00:692
-1.015,-9.347,-0.411,12,0,28.34,,,,NaN,,,,0 / 0,61808,2018-11-09 17:07:00:792
-0.689,-9.538,-0.076,19,0,28.34,,,,NaN,,,,0 / 0,61908,2018-11-09 17:07:00:892
-0.976,-9.5,-0.258,13,0,28.34,,,,NaN,,,,0 / 0,62009,2018-11-09 17:07:00:993
-0.976,-9.5,-0.229,24,0,26.69,,,,NaN,,,,0 / 0,62108,2018-11-09 17:07:01:092
-0.814,-9.586,-0.134,7,0,26.69,,,,NaN,,,,0 / 0,62208,2018-11-09 17:07:01:192
-0.584,-9.912,0.363,8,0,26.69,,,,NaN,,,,0 / 0,62308,2018-11-09 17:07:01:292
-1.656,-9.586,-0.249,20,0,24.93,,,,NaN,,,,0 / 0,62408,2018-11-09 17:07:01:392
-1.158,-9.586,-0.67,26,0,24.93,,,,NaN,,,,0 / 0,62509,2018-11-09 17:07:01:493
-0.814,-9.605,0.258,15,0,24.93,,,,NaN,,,,0 / 0,62608,2018-11-09 17:07:01:592
-0.871,-9.529,-0.402,0,0,42.04,,,,NaN,,,,0 / 0,62708,2018-11-09 17:07:01:692
-0.919,-9.864,0.612,27,0,42.04,,,,NaN,,,,0 / 0,62808,2018-11-09 17:07:01:792
-1.398,-9.088,-0.517,14,0,42.04,,,,NaN,,,,0 / 0,62909,2018-11-09 17:07:01:893
-0.689,-9.481,0.268,0,0,30.76,,,,NaN,,,,0 / 0,63009,2018-11-09 17:07:01:993
-0.699,-10.161,1.254,8,0,30.76,,,,NaN,,,,0 / 0,63109,2018-11-09 17:07:02:093
-0.881,-9.251,-0.325,29,0,30.76,,,,NaN,,,,0 / 0,63209,2018-11-09 17:07:02:193
-0.632,-9.586,-0.229,13,0,40.86,,,,NaN,,,,0 / 0,63309,2018-11-09 17:07:02:293
-0.861,-9.653,-0.258,8,0,40.86,,,,NaN,,,,0 / 0,63409,2018-11-09 17:07:02:393
-1.015,-9.366,0.095,11,0,40.86,,,,NaN,,,,0 / 0,63509,2018-11-09 17:07:02:493
-1.063,-9.51,-0.507,4,0,43.81,,,,NaN,,,,0 / 0,63609,2018-11-09 17:07:02:593
-1.225,-9.72,-1.187,9,0,43.81,,,,NaN,,,,0 / 0,63709,2018-11-09 17:07:02:693
-1.264,-9.625,0.651,12,0,43.81,,,,NaN,,,,0 / 0,63810,2018-11-09 17:07:02:794
-0.976,-9.519,-0.229,0,0,43.71,,,,NaN,,,,0 / 0,63909,2018-11-09 17:07:02:893
-1.216,-9.471,-0.43,11,0,43.71,,,,NaN,,,,0 / 0,64009,2018-11-09 17:07:02:993
-0.986,-9.596,0.363,9,0,43.71,,,,NaN,,,,0 / 0,64109,2018-11-09 17:07:03:093
-0.823,-9.567,-0.344,25,0,40.34,,,,NaN,,,,0 / 0,64209,2018-11-09 17:07:03:193
-0.919,-9.548,0.373,9,0,40.34,,,,NaN,,,,0 / 0,64308,2018-11-09 17:07:03:292
-1.12,-9.5,-0.201,10,0,40.34,,,,NaN,,,,0 / 0,64408,2018-11-09 17:07:03:392
-1.091,-9.557,0.047,8,0,38.5,,,,NaN,,,,0 / 0,64508,2018-11-09 17:07:03:492
-1.034,-9.586,-0.105,11,0,38.5,,,,NaN,,,,0 / 0,64608,2018-11-09 17:07:03:592
-0.861,-9.49,0.057,0,0,38.5,,,,NaN,,,,0 / 0,64708,2018-11-09 17:07:03:692
-1.091,-9.615,0.258,13,0,33.57,,,,NaN,,,,0 / 0,64808,2018-11-09 17:07:03:792
-1.168,-9.634,-0.411,9,0,33.57,,,,NaN,,,,0 / 0,64908,2018-11-09 17:07:03:892
-1.139,-9.519,-0.363,1,0,33.57,,,,NaN,,,,0 / 0,65008,2018-11-09 17:07:03:992
-0.823,-9.577,-0.105,33,0,40.86,,,,NaN,,,,0 / 0,65108,2018-11-09 17:07:04:092
-0.928,-9.586,-0.277,10,0,40.86,,,,NaN,,,,0 / 0,65208,2018-11-09 17:07:04:192
-1.015,-9.577,-0.229,19,0,40.86,,,,NaN,,,,0 / 0,65309,2018-11-09 17:07:04:293
-0.996,-9.5,-0.268,15,0,39.25,,,,NaN,,,,0 / 0,65408,2018-11-09 17:07:04:392
-0.861,-9.519,-0.354,12,0,39.25,,,,NaN,,,,0 / 0,65508,2018-11-09 17:07:04:492
-0.823,-9.567,-0.306,7,0,39.25,,,,NaN,,,,0 / 0,65608,2018-11-09 17:07:04:592
-0.881,-9.577,-0.383,5,0,39.62,,,,NaN,,,,0 / 0,65708,2018-11-09 17:07:04:692
-0.9,-9.548,-0.335,17,0,39.62,,,,NaN,,,,0 / 0,65810,2018-11-09 17:07:04:794
-0.794,-9.605,-0.277,8,0,39.62,,,,NaN,,,,0 / 0,65909,2018-11-09 17:07:04:893
-0.785,-9.51,-0.469,12,0,32.95,,,,NaN,,,,0 / 0,66008,2018-11-09 17:07:04:992
-0.909,-9.577,-0.316,11,0,32.95,,,,NaN,,,,0 / 0,66108,2018-11-09 17:07:05:092
-0.814,-9.529,-0.565,13,0,32.95,,,,NaN,,,,0 / 0,66208,2018-11-09 17:07:05:192
-1.015,-9.625,-0.421,18,0,33.81,,,,NaN,,,,0 / 0,66309,2018-11-09 17:07:05:293
-0.852,-9.538,-0.545,0,0,33.81,,,,NaN,,,,0 / 0,66409,2018-11-09 17:07:05:393
-0.89,-9.548,-0.584,2,0,33.81,,,,NaN,,,,0 / 0,66509,2018-11-09 17:07:05:493
-0.775,-9.49,-0.498,2,0,32.69,,,,NaN,,,,0 / 0,66608,2018-11-09 17:07:05:592
-0.9,-9.529,-0.44,14,0,32.69,,,,NaN,,,,0 / 0,66708,2018-11-09 17:07:05:692
-0.909,-9.462,-0.392,21,0,32.69,,,,NaN,,,,0 / 0,66808,2018-11-09 17:07:05:792
-0.861,-9.538,-0.507,10,0,37.93,,,,NaN,,,,0 / 0,66908,2018-11-09 17:07:05:892
-0.909,-9.548,-0.507,8,0,37.93,,,,NaN,,,,0 / 0,67008,2018-11-09 17:07:05:992
-0.928,-9.538,-0.488,17,0,37.93,,,,NaN,,,,0 / 0,67110,2018-11-09 17:07:06:094
-0.718,-9.462,-0.584,10,0,38.98,,,,NaN,,,,0 / 0,67208,2018-11-09 17:07:06:192
-0.928,-9.615,-0.517,17,0,38.98,,,,NaN,,,,0 / 0,67309,2018-11-09 17:07:06:293
-0.842,-9.605,-0.498,21,0,38.98,,,,NaN,,,,0 / 0,67409,2018-11-09 17:07:06:393
-0.823,-9.615,-0.383,2,0,38.98,,,,NaN,,,,0 / 0,67509,2018-11-09 17:07:06:493
-0.756,-9.854,-0.344,9,0,34.99,,,,NaN,,,,0 / 0,67609,2018-11-09 17:07:06:593
-1.235,-9.481,-0.852,3,0,34.99,,,,NaN,,,,0 / 0,67709,2018-11-09 17:07:06:693
-0.124,-9.941,-0.478,3,0,34.99,,,,NaN,,,,0 / 0,67809,2018-11-09 17:07:06:793
-1.101,-9.519,0.201,13,0,34.22,,,,NaN,,,,0 / 0,67909,2018-11-09 17:07:06:893
-0.928,-9.72,-0.086,13,0,34.22,,,,NaN,,,,0 / 0,68009,2018-11-09 17:07:06:993
-0.766,-9.433,-0.517,17,0,34.22,,,,NaN,,,,0 / 0,68108,2018-11-09 17:07:07:092
-0.603,-9.605,-0.124,5,0,32.4,,,,NaN,,,,0 / 0,68210,2018-11-09 17:07:07:194
-0.861,-9.586,-0.191,8,0,32.4,,,,NaN,,,,0 / 0,68309,2018-11-09 17:07:07:293
-0.536,-9.663,-0.067,12,0,32.4,,,,NaN,,,,0 / 0,68409,2018-11-09 17:07:07:393
-1.695,-9.414,0.593,4,0,41.42,,,,NaN,,,,0 / 0,68509,2018-11-09 17:07:07:493
-1.005,-9.174,0.249,21,0,41.42,,,,NaN,,,,0 / 0,68609,2018-11-09 17:07:07:593
-0.114,-10.467,1.063,8,0,41.42,,,,NaN,,,,0 / 0,68709,2018-11-09 17:07:07:693
-0.143,-9.462,1.743,5,0,45.64,,,,NaN,,,,0 / 0,68809,2018-11-09 17:07:07:793
-0.842,-9.299,0.651,13,0,45.64,,,,NaN,,,,0 / 0,68909,2018-11-09 17:07:07:893
-0.9,-9.816,1.139,25,0,45.64,,,,NaN,,,,0 / 0,69008,2018-11-09 17:07:07:992
-1.235,-10.123,0.852,14,0,44.58,,,,NaN,,,,0 / 0,69108,2018-11-09 17:07:08:092
-0.383,-9.538,0.459,24,0,44.58,,,,NaN,,,,0 / 0,69208,2018-11-09 17:07:08:192
-2.863,-9.797,-1.79,15,0,44.58,,,,NaN,,,,0 / 0,69308,2018-11-09 17:07:08:292
0.162,-10.056,0.335,9,0,46.64,,,,NaN,,,,0 / 0,69408,2018-11-09 17:07:08:392
-1.177,-10.391,1.398,12,0,46.64,,,,NaN,,,,0 / 0,69508,2018-11-09 17:07:08:492
0.105,-9.998,0.229,11,0,46.64,,,,NaN,,,,0 / 0,69608,2018-11-09 17:07:08:592
-0.775,-9.28,0.287,24,0,49.57,,,,NaN,,,,0 / 0,69708,2018-11-09 17:07:08:692
-0.67,-9.586,0.498,19,0,49.57,,,,NaN,,,,0 / 0,69808,2018-11-09 17:07:08:792
-0.287,-9.95,0.488,19,0,49.57,,,,NaN,,,,0 / 0,69908,2018-11-09 17:07:08:892
-1.005,-9.538,0.507,14,0,46.12,,,,NaN,,,,0 / 0,70008,2018-11-09 17:07:08:992
-0.574,-9.49,0.411,17,0,46.12,,,,NaN,,,,0 / 0,70108,2018-11-09 17:07:09:092
-1.551,-9.941,1.072,4,0,46.12,,,,NaN,,,,0 / 0,70208,2018-11-09 17:07:09:192
-1.034,-9.308,0.689,12,0,44.28,,,,NaN,,,,0 / 0,70308,2018-11-09 17:07:09:292
-0.679,-9.49,0.593,7,0,44.28,,,,NaN,,,,0 / 0,70408,2018-11-09 17:07:09:392
-1.206,-9.625,0.459,12,0,44.28,,,,NaN,,,,0 / 0,70508,2018-11-09 17:07:09:492
-0.766,-9.854,0.919,11,0,42.9,,,,NaN,,,,0 / 0,70608,2018-11-09 17:07:09:592
-1.043,-9.251,-0.43,9,0,42.9,,,,NaN,,,,0 / 0,70709,2018-11-09 17:07:09:693
-0.986,-10.065,0.22,19,0,42.9,,,,NaN,,,,0 / 0,70809,2018-11-09 17:07:09:793
-0.565,-9.634,-0.239,10,0,43.88,,,,NaN,,,,0 / 0,70909,2018-11-09 17:07:09:893
-0.766,-9.51,-0.392,10,0,43.88,,,,NaN,,,,0 / 0,71009,2018-11-09 17:07:09:993
-0.909,-9.778,-0.019,13,0,43.88,,,,NaN,,,,0 / 0,71109,2018-11-09 17:07:10:093
-0.766,-9.395,-0.019,5,0,34.46,,,,NaN,,,,0 / 0,71208,2018-11-09 17:07:10:192
-0.948,-9.615,-0.105,15,0,34.46,,,,NaN,,,,0 / 0,71309,2018-11-09 17:07:10:293
-0.699,-9.557,-0.105,26,0,34.46,,,,NaN,,,,0 / 0,71409,2018-11-09 17:07:10:393
-0.66,-9.596,0.038,13,0,31.79,,,,NaN,,,,0 / 0,71509,2018-11-09 17:07:10:493
-0.861,-9.538,-0.143,13,0,31.79,,,,NaN,,,,0 / 0,71609,2018-11-09 17:07:10:593
-0.881,-9.49,-0.363,25,0,31.79,,,,NaN,,,,0 / 0,71709,2018-11-09 17:07:10:693
-0.928,-9.663,-0.181,6,0,27.99,,,,NaN,,,,0 / 0,71809,2018-11-09 17:07:10:793
-1.091,-9.567,-0.287,16,0,27.99,,,,NaN,,,,0 / 0,71909,2018-11-09 17:07:10:893
-0.277,-9.261,0.392,8,0,27.99,,,,NaN,,,,0 / 0,72010,2018-11-09 17:07:10:994
-2.355,-10.266,0.536,16,0,29.54,,,,NaN,,,,0 / 0,72110,2018-11-09 17:07:11:094
-1.005,-9.423,-0.383,14,0,29.54,,,,NaN,,,,0 / 0,72209,2018-11-09 17:07:11:193
-0.727,-9.596,0.105,2,0,29.54,,,,NaN,,,,0 / 0,72309,2018-11-09 17:07:11:293
-0.565,-9.376,-0.105,5,0,43.77,,,,NaN,,,,0 / 0,72409,2018-11-09 17:07:11:393
-0.948,-9.548,0,1,0,43.77,,,,NaN,,,,0 / 0,72509,2018-11-09 17:07:11:493
-0.747,-9.586,-0.019,11,0,43.77,,,,NaN,,,,0 / 0,72609,2018-11-09 17:07:11:593
-0.919,-9.596,0,13,0,43.81,,,,NaN,,,,0 / 0,72709,2018-11-09 17:07:11:693
-0.794,-9.577,-0.057,1,0,43.81,,,,NaN,,,,0 / 0,72809,2018-11-09 17:07:11:793
-0.775,-9.443,-0.134,18,0,43.81,,,,NaN,,,,0 / 0,72909,2018-11-09 17:07:11:893
-0.823,-9.548,-0.019,25,0,43.66,,,,NaN,,,,0 / 0,73009,2018-11-09 17:07:11:993
-0.881,-9.49,0.047,9,0,43.66,,,,NaN,,,,0 / 0,73109,2018-11-09 17:07:12:093
-0.89,-9.471,0.038,0,0,43.66,,,,NaN,,,,0 / 0,73209,2018-11-09 17:07:12:193
-0.766,-9.519,0.086,4,0,43.66,,,,NaN,,,,0 / 0,73309,2018-11-09 17:07:12:293
-0.775,-9.644,0,5,0,40.39,,,,NaN,,,,0 / 0,73410,2018-11-09 17:07:12:394
-0.737,-9.519,0.067,9,0,40.39,,,,NaN,,,,0 / 0,73508,2018-11-09 17:07:12:492
-0.852,-9.605,0.047,15,0,40.39,,,,NaN,,,,0 / 0,73608,2018-11-09 17:07:12:592
-0.679,-9.49,-0.019,0,0,41.18,,,,NaN,,,,0 / 0,73708,2018-11-09 17:07:12:692
-0.545,-9.49,0.067,9,0,41.18,,,,NaN,,,,0 / 0,73808,2018-11-09 17:07:12:792
-0.632,-9.577,-0.028,10,0,41.18,,,,NaN,,,,0 / 0,73908,2018-11-09 17:07:12:892
-0.871,-9.51,-0.076,12,0,37.5,,,,NaN,,,,0 / 0,74008,2018-11-09 17:07:12:992
-0.756,-9.548,0.009,18,0,37.5,,,,NaN,,,,0 / 0,74108,2018-11-09 17:07:13:092
-0.747,-9.653,-0.047,17,0,37.5,,,,NaN,,,,0 / 0,74209,2018-11-09 17:07:13:193
-1.158,-9.605,-0.019,8,0,34.06,,,,NaN,,,,0 / 0,74310,2018-11-09 17:07:13:294
-0.641,-9.49,-0.22,12,0,34.06,,,,NaN,,,,0 / 0,74409,2018-11-09 17:07:13:393
-0.632,-9.49,-0.153,9,0,34.06,,,,NaN,,,,0 / 0,74509,2018-11-09 17:07:13:493
-0.804,-9.51,-0.229,10,0,42.05,,,,NaN,,,,0 / 0,74609,2018-11-09 17:07:13:593
-0.823,-9.567,-0.201,20,0,42.05,,,,NaN,,,,0 / 0,74709,2018-11-09 17:07:13:693
-0.641,-9.557,0,3,0,42.05,,,,NaN,,,,0 / 0,74809,2018-11-09 17:07:13:793
-0.727,-9.49,-0.249,16,0,38.15,,,,NaN,,,,0 / 0,74909,2018-11-09 17:07:13:893
-0.153,-9.663,0.756,19,0,38.15,,,,NaN,,,,0 / 0,75009,2018-11-09 17:07:13:993
-0.833,-9.653,0.296,21,0,38.15,,,,NaN,,,,0 / 0,75108,2018-11-09 17:07:14:092
-0.794,-9.672,0.019,9,0,29.05,,,,NaN,,,,0 / 0,75208,2018-11-09 17:07:14:192
-0.756,-9.519,-0.268,3,0,29.05,,,,NaN,,,,0 / 0,75308,2018-11-09 17:07:14:292
-1.063,-9.701,-0.181,13,0,29.05,,,,NaN,,,,0 / 0,75408,2018-11-09 17:07:14:392
-0.9,-9.567,0.019,5,0,38.2,,,,NaN,,,,0 / 0,75508,2018-11-09 17:07:14:492
-0.679,-9.605,0.038,3,0,38.2,,,,NaN,,,,0 / 0,75608,2018-11-09 17:07:14:592
-0.814,-9.471,-0.076,11,0,38.2,,,,NaN,,,,0 / 0,75708,2018-11-09 17:07:14:692
-0.833,-9.596,0.057,20,0,35.62,,,,NaN,,,,0 / 0,75808,2018-11-09 17:07:14:792
-0.804,-9.452,-0.162,13,0,35.62,,,,NaN,,,,0 / 0,75909,2018-11-09 17:07:14:893
-0.737,-9.567,-0.086,5,0,35.62,,,,NaN,,,,0 / 0,76009,2018-11-09 17:07:14:993
-0.67,-9.538,0,17,0,31.04,,,,NaN,,,,0 / 0,76110,2018-11-09 17:07:15:094
-0.9,-9.538,-0.019,12,0,31.04,,,,NaN,,,,0 / 0,76209,2018-11-09 17:07:15:193
-0.861,-9.557,0.038,18,0,31.04,,,,NaN,,,,0 / 0,76309,2018-11-09 17:07:15:293
-0.794,-9.519,-0.057,23,0,35.61,,,,NaN,,,,0 / 0,76409,2018-11-09 17:07:15:393
-0.967,-9.615,0.181,2,0,35.61,,,,NaN,,,,0 / 0,76509,2018-11-09 17:07:15:493
-0.89,-9.567,-0.009,5,0,35.61,,,,NaN,,,,0 / 0,76610,2018-11-09 17:07:15:594
-1.024,-9.567,-0.038,11,0,36.76,,,,NaN,,,,0 / 0,76709,2018-11-09 17:07:15:693
-0.871,-9.615,0.057,10,0,36.76,,,,NaN,,,,0 / 0,76809,2018-11-09 17:07:15:793
-0.43,-9.519,0.028,10,0,36.76,,,,NaN,,,,0 / 0,76908,2018-11-09 17:07:15:892
-0.785,-9.605,-0.067,12,0,46.58,,,,NaN,,,,0 / 0,77009,2018-11-09 17:07:15:993
-0.9,-9.596,0,12,0,46.58,,,,NaN,,,,0 / 0,77109,2018-11-09 17:07:16:093
-0.861,-9.538,-0.335,5,0,46.58,,,,NaN,,,,0 / 0,77209,2018-11-09 17:07:16:193
-0.871,-9.625,-0.181,14,0,39.97,,,,NaN,,,,0 / 0,77309,2018-11-09 17:07:16:293
-0.948,-9.605,-0.191,16,0,39.97,,,,NaN,,,,0 / 0,77409,2018-11-09 17:07:16:393
-0.804,-9.557,-0.134,14,0,39.97,,,,NaN,,,,0 / 0,77509,2018-11-09 17:07:16:493
-0.89,-9.5,-0.181,4,0,41.17,,,,NaN,,,,0 / 0,77609,2018-11-09 17:07:16:593
-0.89,-9.605,-0.067,16,0,41.17,,,,NaN,,,,0 / 0,77709,2018-11-09 17:07:16:693
-0.708,-9.538,-0.21,15,0,41.17,,,,NaN,,,,0 / 0,77808,2018-11-09 17:07:16:792
-0.861,-9.49,-0.191,33,0,41.31,,,,NaN,,,,0 / 0,77909,2018-11-09 17:07:16:893
-0.603,-9.557,-0.076,13,0,41.31,,,,NaN,,,,0 / 0,78009,2018-11-09 17:07:16:993
-0.928,-9.615,-0.047,20,0,41.31,,,,NaN,,,,0 / 0,78109,2018-11-09 17:07:17:093
-0.957,-9.481,-0.363,24,0,39.26,,,,NaN,,,,0 / 0,78209,2018-11-09 17:07:17:193
-0.861,-9.529,0,1,0,39.26,,,,NaN,,,,0 / 0,78309,2018-11-09 17:07:17:293
-0.478,-9.548,-0.162,15,0,39.26,,,,NaN,,,,0 / 0,78409,2018-11-09 17:07:17:393
-0.66,-9.634,0.076,21,0,39.26,,,,NaN,,,,0 / 0,78509,2018-11-09 17:07:17:493
-0.756,-9.529,-0.296,18,0,33.11,,,,NaN,,,,0 / 0,78609,2018-11-09 17:07:17:593
-0.833,-9.5,-0.258,4,0,33.11,,,,NaN,,,,0 / 0,78708,2018-11-09 17:07:17:692
-0.871,-9.625,-0.162,13,0,33.11,,,,NaN,,,,0 / 0,78809,2018-11-09 17:07:17:793
-0.612,-9.548,-0.105,5,0,32.75,,,,NaN,,,,0 / 0,78909,2018-11-09 17:07:17:893
-0.545,-9.663,-0.028,11,0,32.75,,,,NaN,,,,0 / 0,79009,2018-11-09 17:07:17:993
-0.727,-9.73,-0.076,10,0,32.75,,,,NaN,,,,0 / 0,79109,2018-11-09 17:07:18:093
-1.005,-9.663,-0.153,3,0,27.57,,,,NaN,,,,0 / 0,79209,2018-11-09 17:07:18:193
-0.708,-9.73,0.459,17,0,27.57,,,,NaN,,,,0 / 0,79309,2018-11-09 17:07:18:293
-0.402,-9.548,-0.019,7,0,27.57,,,,NaN,,,,0 / 0,79409,2018-11-09 17:07:18:393
-0.814,-9.27,-0.019,15,0,38.8,,,,NaN,,,,0 / 0,79509,2018-11-09 17:07:18:493
-1.158,-9.615,0.469,3,0,38.8,,,,NaN,,,,0 / 0,79609,2018-11-09 17:07:18:593
-1.101,-9.356,0.584,7,0,38.8,,,,NaN,,,,0 / 0,79709,2018-11-09 17:07:18:693
-0.727,-9.49,0.277,9,0,42.06,,,,NaN,,,,0 / 0,79809,2018-11-09 17:07:18:793
-0.469,-9.538,0.076,21,0,42.06,,,,NaN,,,,0 / 0,79909,2018-11-09 17:07:18:893
-0.919,-9.567,-0.019,0,0,42.06,,,,NaN,,,,0 / 0,80009,2018-11-09 17:07:18:993
-0.153,-9.998,0.469,11,0,36.88,,,,NaN,,,,0 / 0,80109,2018-11-09 17:07:19:093
-0.689,-9.634,0.229,9,0,36.88,,,,NaN,,,,0 / 0,80209,2018-11-09 17:07:19:193
-0.881,-9.529,-0.21,0,0,36.88,,,,NaN,,,,0 / 0,80309,2018-11-09 17:07:19:293
-0.881,-9.596,-0.191,1,0,33.03,,,,NaN,,,,0 / 0,80409,2018-11-09 17:07:19:393
-0.785,-9.51,-0.229,11,0,33.03,,,,NaN,,,,0 / 0,80509,2018-11-09 17:07:19:493
-0.287,-9.577,-0.239,9,0,33.03,,,,NaN,,,,0 / 0,80609,2018-11-09 17:07:19:593
-0.565,-9.5,-0.143,17,0,38.51,,,,NaN,,,,0 / 0,80709,2018-11-09 17:07:19:693
-0.718,-9.778,-0.019,20,0,38.51,,,,NaN,,,,0 / 0,80809,2018-11-09 17:07:19:793
-1.082,-9.49,-0.249,10,0,38.51,,,,NaN,,,,0 / 0,80909,2018-11-09 17:07:19:893
-0.622,-9.682,-0.105,12,0,46.51,,,,NaN,,,,0 / 0,81009,2018-11-09 17:07:19:993
-0.976,-9.548,-0.162,15,0,46.51,,,,NaN,,,,0 / 0,81109,2018-11-09 17:07:20:093
-0.584,-9.49,-0.21,20,0,46.51,,,,NaN,,,,0 / 0,81209,2018-11-09 17:07:20:193
-0.383,-9.653,0.086,6,0,40.75,,,,NaN,,,,0 / 0,81309,2018-11-09 17:07:20:293
-0.335,-9.749,-0.009,2,0,40.75,,,,NaN,,,,0 / 0,81409,2018-11-09 17:07:20:393
-0.747,-9.529,-0.363,8,0,40.75,,,,NaN,,,,0 / 0,81509,2018-11-09 17:07:20:493
-0.632,-9.529,-0.421,11,0,38.56,,,,NaN,,,,0 / 0,81609,2018-11-09 17:07:20:593
-0.603,-9.711,-0.114,18,0,38.56,,,,NaN,,,,0 / 0,81708,2018-11-09 17:07:20:692
-0.43,-9.615,-0.134,12,0,38.56,,,,NaN,,,,0 / 0,81808,2018-11-09 17:07:20:792
-0.9,-9.72,0,14,0,33.5,,,,NaN,,,,0 / 0,81908,2018-11-09 17:07:20:892
-1.082,-9.567,0.028,10,0,33.5,,,,NaN,,,,0 / 0,82008,2018-11-09 17:07:20:992
-0.66,-9.452,0.114,13,0,33.5,,,,NaN,,,,0 / 0,82108,2018-11-09 17:07:21:092
-0.775,-9.653,0.411,22,0,29.89,,,,NaN,,,,0 / 0,82208,2018-11-09 17:07:21:192
-0.861,-9.471,0.258,16,0,29.89,,,,NaN,,,,0 / 0,82308,2018-11-09 17:07:21:292
-0.842,-9.577,0.067,9,0,29.89,,,,NaN,,,,0 / 0,82408,2018-11-09 17:07:21:392
-0.756,-9.404,0.047,20,0,37.75,,,,NaN,,,,0 / 0,82509,2018-11-09 17:07:21:493
-0.392,-9.615,0.335,5,0,37.75,,,,NaN,,,,0 / 0,82609,2018-11-09 17:07:21:593
-0.507,-9.672,0.574,20,0,37.75,,,,NaN,,,,0 / 0,82709,2018-11-09 17:07:21:693
-0.67,-9.519,-0.124,6,0,40.99,,,,NaN,,,,0 / 0,82809,2018-11-09 17:07:21:793
-0.651,-9.529,0,13,0,40.99,,,,NaN,,,,0 / 0,82909,2018-11-09 17:07:21:893
-0.775,-9.51,-0.047,8,0,40.99,,,,NaN,,,,0 / 0,83009,2018-11-09 17:07:21:993
-0.794,-9.634,-0.143,13,0,39.12,,,,NaN,,,,0 / 0,83109,2018-11-09 17:07:22:093
-0.181,-9.912,-0.44,32,0,39.12,,,,NaN,,,,0 / 0,83209,2018-11-09 17:07:22:193
-0.651,-9.433,-0.143,21,0,39.12,,,,NaN,,,,0 / 0,83309,2018-11-09 17:07:22:293
-1.158,-9.644,-0.258,13,0,42.86,,,,NaN,,,,0 / 0,83409,2018-11-09 17:07:22:393
0.057,-10.161,-0.766,9,0,42.86,,,,NaN,,,,0 / 0,83509,2018-11-09 17:07:22:493
-1.245,-9.49,-0.469,21,0,42.86,,,,NaN,,,,0 / 0,83609,2018-11-09 17:07:22:593
-0.938,-9.644,-0.086,16,0,47.71,,,,NaN,,,,0 / 0,83709,2018-11-09 17:07:22:693
-0.622,-9.519,-0.584,8,0,47.71,,,,NaN,,,,0 / 0,83809,2018-11-09 17:07:22:793
-0.938,-9.443,-0.201,21,0,47.71,,,,NaN,,,,0 / 0,83909,2018-11-09 17:07:22:893
-0.555,-9.672,-0.249,15,0,36.57,,,,NaN,,,,0 / 0,84009,2018-11-09 17:07:22:993
-0.249,-9.893,-0.191,21,0,36.57,,,,NaN,,,,0 / 0,84109,2018-11-09 17:07:23:093
-0.66,-9.51,-0.469,10,0,36.57,,,,NaN,,,,0 / 0,84209,2018-11-09 17:07:23:193
-0.526,-9.644,-0.536,13,0,35.52,,,,NaN,,,,0 / 0,84309,2018-11-09 17:07:23:293
-1.216,-9.653,-0.344,12,0,35.52,,,,NaN,,,,0 / 0,84409,2018-11-09 17:07:23:393
-0.689,-9.538,-0.373,18,0,35.52,,,,NaN,,,,0 / 0,84509,2018-11-09 17:07:23:493
-0.689,-9.557,-0.191,14,0,28.58,,,,NaN,,,,0 / 0,84609,2018-11-09 17:07:23:593
-0.651,-9.577,-0.239,12,0,28.58,,,,NaN,,,,0 / 0,84709,2018-11-09 17:07:23:693
-0.718,-9.567,-0.239,0,0,28.58,,,,NaN,,,,0 / 0,84809,2018-11-09 17:07:23:793
-0.679,-9.529,-0.296,9,0,30.83,,,,NaN,,,,0 / 0,84909,2018-11-09 17:07:23:893
-0.9,-9.577,-0.22,6,0,30.83,,,,NaN,,,,0 / 0,85009,2018-11-09 17:07:23:993
-0.785,-9.577,-0.249,26,0,30.83,,,,NaN,,,,0 / 0,85109,2018-11-09 17:07:24:093
-0.747,-9.49,-0.268,9,0,26.19,,,,NaN,,,,0 / 0,85209,2018-11-09 17:07:24:193
-0.756,-9.577,-0.268,22,0,26.19,,,,NaN,,,,0 / 0,85309,2018-11-09 17:07:24:293
-0.756,-9.644,-0.229,18,0,26.19,,,,NaN,,,,0 / 0,85409,2018-11-09 17:07:24:393
-0.679,-9.414,-0.354,3,0,39.5,,,,NaN,,,,0 / 0,85509,2018-11-09 17:07:24:493
-0.881,-9.586,0.095,7,0,39.5,,,,NaN,,,,0 / 0,85609,2018-11-09 17:07:24:593
-0.507,-9.73,-0.181,6,0,39.5,,,,NaN,,,,0 / 0,85709,2018-11-09 17:07:24:693
-0.938,-9.548,-0.43,2,0,35.94,,,,NaN,,,,0 / 0,85809,2018-11-09 17:07:24:793
-0.747,-9.653,-0.306,0,0,35.94,,,,NaN,,,,0 / 0,85909,2018-11-09 17:07:24:893
-0.699,-9.567,-0.478,16,0,35.94,,,,NaN,,,,0 / 0,86009,2018-11-09 17:07:24:993
-0.344,-9.136,1.13,13,0,35.94,,,,NaN,,,,0 / 0,86110,2018-11-09 17:07:25:094
-0.421,-9.404,-0.718,0,0,40.05,,,,NaN,,,,0 / 0,86209,2018-11-09 17:07:25:193
-0.287,-9.605,-0.076,0,0,40.05,,,,NaN,,,,0 / 0,86309,2018-11-09 17:07:25:293
-0.919,-9.653,-0.067,21,0,40.05,,,,NaN,,,,0 / 0,86409,2018-11-09 17:07:25:393
-0.766,-9.577,-0.239,30,0,44.07,,,,NaN,,,,0 / 0,86509,2018-11-09 17:07:25:493
-0.909,-9.548,-0.105,9,0,44.07,,,,NaN,,,,0 / 0,86609,2018-11-09 17:07:25:593
-0.555,-9.634,-0.258,15,0,44.07,,,,NaN,,,,0 / 0,86709,2018-11-09 17:07:25:693
-0.909,-9.557,-0.249,16,0,37.5,,,,NaN,,,,0 / 0,86809,2018-11-09 17:07:25:793
-0.66,-9.557,-0.354,4,0,37.5,,,,NaN,,,,0 / 0,86909,2018-11-09 17:07:25:893
-0.775,-9.51,-0.335,8,0,37.5,,,,NaN,,,,0 / 0,87009,2018-11-09 17:07:25:993
-0.641,-9.586,-0.44,23,0,37.97,,,,NaN,,,,0 / 0,87109,2018-11-09 17:07:26:093
-0.785,-9.644,-0.344,7,0,37.97,,,,NaN,,,,0 / 0,87209,2018-11-09 17:07:26:193
-0.948,-9.586,-0.287,15,0,37.97,,,,NaN,,,,0 / 0,87309,2018-11-09 17:07:26:293
-0.833,-9.538,-0.498,1,0,34.44,,,,NaN,,,,0 / 0,87409,2018-11-09 17:07:26:393
-0.938,-9.586,-0.373,13,0,34.44,,,,NaN,,,,0 / 0,87509,2018-11-09 17:07:26:493
-0.593,-9.49,-0.584,13,0,34.44,,,,NaN,,,,0 / 0,87609,2018-11-09 17:07:26:593
-0.814,-9.519,-0.239,0,0,45.18,,,,NaN,,,,0 / 0,87709,2018-11-09 17:07:26:693
-0.536,-9.577,-0.383,22,0,45.18,,,,NaN,,,,0 / 0,87809,2018-11-09 17:07:26:793
-0.986,-9.596,-0.392,12,0,45.18,,,,NaN,,,,0 / 0,87909,2018-11-09 17:07:26:893
-0.469,-9.519,-0.44,6,0,41.68,,,,NaN,,,,0 / 0,88009,2018-11-09 17:07:26:993
-0.804,-9.462,-0.392,16,0,41.68,,,,NaN,,,,0 / 0,88109,2018-11-09 17:07:27:093
-0.766,-9.596,-0.354,11,0,41.68,,,,NaN,,,,0 / 0,88209,2018-11-09 17:07:27:193
-0.641,-9.51,-0.306,12,0,29.99,,,,NaN,,,,0 / 0,88309,2018-11-09 17:07:27:293
-0.861,-9.548,-0.277,3,0,29.99,,,,NaN,,,,0 / 0,88409,2018-11-09 17:07:27:393
-0.794,-9.615,-0.153,24,0,29.99,,,,NaN,,,,0 / 0,88509,2018-11-09 17:07:27:493
-0.794,-9.49,-0.268,6,0,35.35,,,,NaN,,,,0 / 0,88609,2018-11-09 17:07:27:593
-0.785,-9.577,-0.287,3,0,35.35,,,,NaN,,,,0 / 0,88709,2018-11-09 17:07:27:693
-0.727,-9.586,-0.268,21,0,35.35,,,,NaN,,,,0 / 0,88809,2018-11-09 17:07:27:793
-0.727,-9.51,-0.239,16,0,31.17,,,,NaN,,,,0 / 0,88909,2018-11-09 17:07:27:893
-0.861,-9.586,-0.067,2,0,31.17,,,,NaN,,,,0 / 0,89009,2018-11-09 17:07:27:993
-0.928,-9.577,-0.296,5,0,31.17,,,,NaN,,,,0 / 0,89109,2018-11-09 17:07:28:093
-0.976,-9.557,-0.067,10,0,30.02,,,,NaN,,,,0 / 0,89209,2018-11-09 17:07:28:193
-0.842,-9.481,-0.392,23,0,30.02,,,,NaN,,,,0 / 0,89309,2018-11-09 17:07:28:293
-0.881,-9.452,-0.363,9,0,30.02,,,,NaN,,,,0 / 0,89409,2018-11-09 17:07:28:393
-0.718,-9.423,-0.459,17,0,38.18,,,,NaN,,,,0 / 0,89509,2018-11-09 17:07:28:493
-0.89,-9.519,-0.373,0,0,38.18,,,,NaN,,,,0 / 0,89609,2018-11-09 17:07:28:593
-0.584,-9.538,-0.478,7,0,38.18,,,,NaN,,,,0 / 0,89709,2018-11-09 17:07:28:693
-1.225,-9.557,-0.565,12,0,38.93,,,,NaN,,,,0 / 0,89809,2018-11-09 17:07:28:793
-0.258,-9.443,-0.325,16,0,38.93,,,,NaN,,,,0 / 0,89909,2018-11-09 17:07:28:893
-0.632,-9.538,0.114,17,0,38.93,,,,NaN,,,,0 / 0,90009,2018-11-09 17:07:28:993
-0.019,-10.161,0.277,7,0,40.57,,,,NaN,,,,0 / 0,90108,2018-11-09 17:07:29:092
-1.8,-11.09,5.104,14,0,40.57,,,,NaN,,,,0 / 0,90208,2018-11-09 17:07:29:192
-0.9,-12.459,3.639,10,0,40.57,,,,NaN,,,,0 / 0,90308,2018-11-09 17:07:29:292
-2.509,-8.092,1.982,18,0,47.19,,,,NaN,,,,0 / 0,90408,2018-11-09 17:07:29:392
-1.58,-7.594,3.294,5,0,47.19,,,,NaN,,,,0 / 0,90508,2018-11-09 17:07:29:492
-0.881,-6.483,4.673,9,0,47.19,,,,NaN,,,,0 / 0,90608,2018-11-09 17:07:29:592
-3.342,-8.887,6.905,2,0,53.37,,,,NaN,,,,0 / 0,90708,2018-11-09 17:07:29:692
-2.336,-10.429,3.409,23,0,53.37,,,,NaN,,,,0 / 0,90808,2018-11-09 17:07:29:792
-0.421,-6.196,-3.055,19,0,53.37,,,,NaN,,,,0 / 0,90908,2018-11-09 17:07:29:892
1.063,-11.885,2.02,13,0,51.76,,,,NaN,,,,0 / 0,91009,2018-11-09 17:07:29:993
-1.158,-9.337,0.871,6,0,51.76,,,,NaN,,,,0 / 0,91109,2018-11-09 17:07:30:093
1.053,-9.299,2.336,7,0,51.76,,,,NaN,,,,0 / 0,91209,2018-11-09 17:07:30:193
-0.919,-7.316,2.049,4,0,58.23,,,,NaN,,,,0 / 0,91309,2018-11-09 17:07:30:293
-1.206,-6.56,0.488,22,0,58.23,,,,NaN,,,,0 / 0,91409,2018-11-09 17:07:30:393
0.871,-8.772,0.871,9,0,58.23,,,,NaN,,,,0 / 0,91509,2018-11-09 17:07:30:493
-4.951,-19.614,3.007,18,0,48.17,,,,NaN,,,,0 / 0,91609,2018-11-09 17:07:30:593
-3.323,-11.109,0.565,2,0,48.17,,,,NaN,,,,0 / 0,91709,2018-11-09 17:07:30:693
0.114,2.116,-2.853,25,0,48.17,,,,NaN,,,,0 / 0,91809,2018-11-09 17:07:30:793
-0.938,-3.457,1.359,0,0,48.17,,,,NaN,,,,0 / 0,91909,2018-11-09 17:07:30:893
-0.948,-11.368,1.905,4,0,54.42,,,,NaN,,,,0 / 0,92009,2018-11-09 17:07:30:993
-3.342,-19.614,12.823,1,0,54.42,,,,NaN,,,,0 / 0,92109,2018-11-09 17:07:31:093
0.478,-13.321,-5.411,0,0,54.42,,,,NaN,,,,0 / 0,92209,2018-11-09 17:07:31:193
-3.026,-12.718,7.747,0,0,59.02,,,,NaN,,,,0 / 0,92309,2018-11-09 17:07:31:293
0.306,-6.397,2.873,16,0,59.02,,,,NaN,,,,0 / 0,92409,2018-11-09 17:07:31:393
2.509,-7.096,3.217,7,0,59.02,,,,NaN,,,,0 / 0,92509,2018-11-09 17:07:31:493
2.576,-19.269,7.91,8,0,57.4,,,,NaN,,,,0 / 0,92609,2018-11-09 17:07:31:593
-2.154,-16.74,4.003,7,0,57.4,,,,NaN,,,,0 / 0,92709,2018-11-09 17:07:31:693
-1.12,-0.871,0,7,0,57.4,,,,NaN,,,,0 / 0,92809,2018-11-09 17:07:31:793
-1.656,-4.233,1.187,13,0,51.09,,,,NaN,,,,0 / 0,92909,2018-11-09 17:07:31:893
2.365,-12.479,9.127,0,0,51.09,,,,NaN,,,,0 / 0,93009,2018-11-09 17:07:31:993
-3.763,-11.923,3.629,18,0,51.09,,,,NaN,,,,0 / 0,93109,2018-11-09 17:07:32:093
1.992,-11.875,-0.114,13,0,46.85,,,,NaN,,,,0 / 0,93209,2018-11-09 17:07:32:193
2.537,-10.975,1.206,19,0,46.85,,,,NaN,,,,0 / 0,93309,2018-11-09 17:07:32:293
-0.517,-10.984,4.051,10,0,46.85,,,,NaN,,,,0 / 0,93409,2018-11-09 17:07:32:393
-0.143,-7.297,0.086,30,0,57.61,,,,NaN,,,,0 / 0,93509,2018-11-09 17:07:32:493
0.66,-8.59,-0.833,15,0,57.61,,,,NaN,,,,0 / 0,93609,2018-11-09 17:07:32:593
-0.498,-18.876,7.92,13,0,57.61,,,,NaN,,,,0 / 0,93709,2018-11-09 17:07:32:693
-0.689,-13.398,-0.181,20,0,52.4,,,,NaN,,,,0 / 0,93809,2018-11-09 17:07:32:793
-0.555,-2.375,-1.015,12,0,52.4,,,,NaN,,,,0 / 0,93909,2018-11-09 17:07:32:893
-2.001,-3.457,0.354,23,0,52.4,,,,NaN,,,,0 / 0,94009,2018-11-09 17:07:32:993
-0.105,-12.249,10.333,8,0,57.26,,,,NaN,,,,0 / 0,94109,2018-11-09 17:07:33:093
-5.669,-12.086,0.526,3,0,57.26,,,,NaN,,,,0 / 0,94209,2018-11-09 17:07:33:193
2.241,-14.758,2.49,16,0,57.26,,,,NaN,,,,0 / 0,94309,2018-11-09 17:07:33:293
-0.651,-7.202,0.191,20,0,60.03,,,,NaN,,,,0 / 0,94409,2018-11-09 17:07:33:393
3.763,-9.289,1.551,14,0,60.03,,,,NaN,,,,0 / 0,94509,2018-11-09 17:07:33:493
-3.093,-4.625,0.536,9,0,60.03,,,,NaN,,,,0 / 0,94609,2018-11-09 17:07:33:593
2.049,-8.772,-1.426,13,0,54.78,,,,NaN,,,,0 / 0,94709,2018-11-09 17:07:33:693
-0.718,-16.405,7.613,12,0,54.78,,,,NaN,,,,0 / 0,94809,2018-11-09 17:07:33:793
-1.752,-10.343,2.576,17,0,54.78,,,,NaN,,,,0 / 0,94909,2018-11-09 17:07:33:893
-2.576,-3.074,1.273,13,0,55.06,,,,NaN,,,,0 / 0,95009,2018-11-09 17:07:33:993
-2.231,-5.506,1.225,25,0,55.06,,,,NaN,,,,0 / 0,95109,2018-11-09 17:07:34:093
0.507,-6.953,5.363,14,0,55.06,,,,NaN,,,,0 / 0,95209,2018-11-09 17:07:34:193
-3.629,-11.53,4.29,0,0,46.62,,,,NaN,,,,0 / 0,95309,2018-11-09 17:07:34:293
-1.053,-17.583,-4.089,4,0,46.62,,,,NaN,,,,0 / 0,95409,2018-11-09 17:07:34:393
-1.043,-6.541,-5.353,1,0,46.62,,,,NaN,,,,0 / 0,95509,2018-11-09 17:07:34:493
3.83,-10.668,8.964,18,0,60.44,,,,NaN,,,,0 / 0,95609,2018-11-09 17:07:34:593
-3.304,-8.217,5.229,0,0,60.44,,,,NaN,,,,0 / 0,95709,2018-11-09 17:07:34:693
0.258,-7.939,0.268,13,0,60.44,,,,NaN,,,,0 / 0,95809,2018-11-09 17:07:34:793
1.541,-12.134,2.518,19,0,55.64,,,,NaN,,,,0 / 0,95909,2018-11-09 17:07:34:893
-0.986,-18.167,-0.354,9,0,55.64,,,,NaN,,,,0 / 0,96008,2018-11-09 17:07:34:992
-0.316,-10.85,-1.915,9,0,55.64,,,,NaN,,,,0 / 0,96108,2018-11-09 17:07:35:092
-3.648,-7.518,0.584,24,0,57.16,,,,NaN,,,,0 / 0,96208,2018-11-09 17:07:35:192
-2.25,-6.368,4.29,3,0,57.16,,,,NaN,,,,0 / 0,96308,2018-11-09 17:07:35:292
-0.651,-7.949,3.17,7,0,57.16,,,,NaN,,,,0 / 0,96408,2018-11-09 17:07:35:392
0.047,-11.923,1.436,11,0,65.21,,,,NaN,,,,0 / 0,96508,2018-11-09 17:07:35:492
3.821,-11.54,-0.469,17,0,65.21,,,,NaN,,,,0 / 0,96608,2018-11-09 17:07:35:592
-4.242,-8.629,2.145,2,0,65.21,,,,NaN,,,,0 / 0,96708,2018-11-09 17:07:35:692
2.25,-10.668,5.755,14,0,48.79,,,,NaN,,,,0 / 0,96809,2018-11-09 17:07:35:793
-1.513,-6.751,2.71,12,0,48.79,,,,NaN,,,,0 / 0,96908,2018-11-09 17:07:35:892
1.216,-7.891,1.139,21,0,48.79,,,,NaN,,,,0 / 0,97008,2018-11-09 17:07:35:992
0.153,-17.679,5.851,7,0,49.6,,,,NaN,,,,0 / 0,97108,2018-11-09 17:07:36:092
0.392,-18.589,-1.647,0,0,49.6,,,,NaN,,,,0 / 0,97208,2018-11-09 17:07:36:192
-2.135,-5.028,0.498,19,0,49.6,,,,NaN,,,,0 / 0,97309,2018-11-09 17:07:36:293
-2.537,-2.269,0.229,16,0,52.82,,,,NaN,,,,0 / 0,97408,2018-11-09 17:07:36:392
-0.296,-9.012,3.074,8,0,52.82,,,,NaN,,,,0 / 0,97508,2018-11-09 17:07:36:492
0.507,-7.077,-1.455,20,0,52.82,,,,NaN,,,,0 / 0,97609,2018-11-09 17:07:36:593
-6.397,-19.614,4.338,14,0,45.24,,,,NaN,,,,0 / 0,97709,2018-11-09 17:07:36:693
6.656,-14.365,-0.861,6,0,45.24,,,,NaN,,,,0 / 0,97809,2018-11-09 17:07:36:793
-5.449,-3.754,-2.087,14,0,45.24,,,,NaN,,,,0 / 0,97909,2018-11-09 17:07:36:893
2.432,-8.207,5.65,3,0,52.26,,,,NaN,,,,0 / 0,98009,2018-11-09 17:07:36:993
0.095,-5.794,3.112,13,0,52.26,,,,NaN,,,,0 / 0,98109,2018-11-09 17:07:37:093
1.225,-16.089,9.567,13,0,52.26,,,,NaN,,,,0 / 0,98209,2018-11-09 17:07:37:193
-3.744,-13.187,1.446,18,0,52.26,,,,NaN,,,,0 / 0,98310,2018-11-09 17:07:37:294
-3.265,-2.834,0.028,14,0,54.18,,,,NaN,,,,0 / 0,98409,2018-11-09 17:07:37:393
-2.183,-3.352,-0.392,7,0,54.18,,,,NaN,,,,0 / 0,98509,2018-11-09 17:07:37:493
0.086,-11.827,7.527,14,0,54.18,,,,NaN,,,,0 / 0,98609,2018-11-09 17:07:37:593
0.296,-11.166,3.304,5,0,55,,,,NaN,,,,0 / 0,98709,2018-11-09 17:07:37:693
-1.206,-15.323,-1.34,6,0,55,,,,NaN,,,,0 / 0,98809,2018-11-09 17:07:37:793
-1.925,-7.786,-1.771,16,0,55,,,,NaN,,,,0 / 0,98909,2018-11-09 17:07:37:893
-0.019,-9.462,3.639,8,0,59.31,,,,NaN,,,,0 / 0,99008,2018-11-09 17:07:37:992
0.641,-9.059,7.441,16,0,59.31,,,,NaN,,,,0 / 0,99108,2018-11-09 17:07:38:092
-1.532,-4.692,0.21,14,0,59.31,,,,NaN,,,,0 / 0,99208,2018-11-09 17:07:38:192
-0.095,-19.614,9.874,3,0,53.74,,,,NaN,,,,0 / 0,99308,2018-11-09 17:07:38:292
-2.384,-12.699,1.79,11,0,53.74,,,,NaN,,,,0 / 0,99408,2018-11-09 17:07:38:392
-2.078,-3.524,1.177,18,0,53.74,,,,NaN,,,,0 / 0,99508,2018-11-09 17:07:38:492
-0.986,-3.62,1.015,15,0,53.02,,,,NaN,,,,0 / 0,99608,2018-11-09 17:07:38:592
1.819,-13.532,4.338,20,0,53.02,,,,NaN,,,,0 / 0,99708,2018-11-09 17:07:38:692
-1.015,-11.904,8.724,23,0,53.02,,,,NaN,,,,0 / 0,99809,2018-11-09 17:07:38:793
1.005,-17.344,-2.097,26,0,43.72,,,,NaN,,,,0 / 0,99909,2018-11-09 17:07:38:893
-0.45,-17.918,1.11,11,0,43.72,,,,NaN,,,,0 / 0,100009,2018-11-09 17:07:38:993
-0.095,-8.638,-1.388,12,0,43.72,,,,NaN,,,,0 / 0,100109,2018-11-09 17:07:39:093
0.89,-9.634,6.368,17,0,59.4,,,,NaN,,,,0 / 0,100209,2018-11-09 17:07:39:193
0.919,-4.07,-1.608,20,0,59.4,,,,NaN,,,,0 / 0,100309,2018-11-09 17:07:39:293
0.507,-10.391,1.312,15,0,59.4,,,,NaN,,,,0 / 0,100409,2018-11-09 17:07:39:393
-3.352,-19.614,7.862,25,0,53.53,,,,NaN,,,,0 / 0,100509,2018-11-09 17:07:39:493
-3.955,-10.573,2.681,16,0,53.53,,,,NaN,,,,0 / 0,100609,2018-11-09 17:07:39:593
-0.766,-2.327,-0.363,17,0,53.53,,,,NaN,,,,0 / 0,100709,2018-11-09 17:07:39:693
-1.628,-4.941,2.432,23,0,57.3,,,,NaN,,,,0 / 0,100809,2018-11-09 17:07:39:793
4.424,-7.489,3.936,11,0,57.3,,,,NaN,,,,0 / 0,100909,2018-11-09 17:07:39:893
-2.202,-11.942,-1.005,18,0,57.3,,,,NaN,,,,0 / 0,101009,2018-11-09 17:07:39:993
-0.766,-12.986,-6.378,9,0,51.96,,,,NaN,,,,0 / 0,101109,2018-11-09 17:07:40:093
0.201,-14.815,1.886,13,0,51.96,,,,NaN,,,,0 / 0,101209,2018-11-09 17:07:40:193
-0.679,-7.824,-0.153,5,0,51.96,,,,NaN,,,,0 / 0,101308,2018-11-09 17:07:40:292
2.461,-8.638,2.001,14,0,59.42,,,,NaN,,,,0 / 0,101408,2018-11-09 17:07:40:392
-0.584,-6.55,4.74,12,0,59.42,,,,NaN,,,,0 / 0,101508,2018-11-09 17:07:40:492
-4.213,-12.756,1.925,2,0,59.42,,,,NaN,,,,0 / 0,101608,2018-11-09 17:07:40:592
-2.039,-12.938,3.38,14,0,55.51,,,,NaN,,,,0 / 0,101708,2018-11-09 17:07:40:692
-3.878,-4.06,2.911,15,0,55.51,,,,NaN,,,,0 / 0,101808,2018-11-09 17:07:40:792
-2.327,-3.352,1.254,11,0,55.51,,,,NaN,,,,0 / 0,101908,2018-11-09 17:07:40:892
0.201,-10.343,7.02,6,0,55.98,,,,NaN,,,,0 / 0,102009,2018-11-09 17:07:40:993
-2.193,-11.55,8.169,19,0,55.98,,,,NaN,,,,0 / 0,102109,2018-11-09 17:07:41:093
-4.711,-18.321,-11.186,8,0,55.98,,,,NaN,,,,0 / 0,102209,2018-11-09 17:07:41:193
11.99,-11.483,0.44,17,0,55.02,,,,NaN,,,,0 / 0,102309,2018-11-09 17:07:41:293
-12.622,-7.652,1.838,14,0,55.02,,,,NaN,,,,0 / 0,102411,2018-11-09 17:07:41:395
-1.934,-10.898,3.265,20,0,55.02,,,,NaN,,,,0 / 0,102509,2018-11-09 17:07:41:493
0.43,-13.647,0.679,17,0,57.72,,,,NaN,,,,0 / 0,102609,2018-11-09 17:07:41:593
5.631,-14.662,1.886,22,0,57.72,,,,NaN,,,,0 / 0,102709,2018-11-09 17:07:41:693
-0.306,-11.032,-5.688,8,0,57.72,,,,NaN,,,,0 / 0,102809,2018-11-09 17:07:41:793
4.108,-13.685,-4.846,18,0,55.38,,,,NaN,,,,0 / 0,102909,2018-11-09 17:07:41:893
-1.292,-6.608,-1.628,11,0,55.38,,,,NaN,,,,0 / 0,103010,2018-11-09 17:07:41:994
-3.61,-4.118,-0.143,10,0,55.38,,,,NaN,,,,0 / 0,103109,2018-11-09 17:07:42:093
1.953,-12.172,7.383,3,0,63.4,,,,NaN,,,,0 / 0,103209,2018-11-09 17:07:42:193
-1.283,-14.413,-2.279,0,0,63.4,,,,NaN,,,,0 / 0,103309,2018-11-09 17:07:42:293
-0.66,-2.959,-5.181,18,0,63.4,,,,NaN,,,,0 / 0,103409,2018-11-09 17:07:42:393
3.016,-9.376,1.283,22,0,47.84,,,,NaN,,,,0 / 0,103509,2018-11-09 17:07:42:493
-2.451,-8.629,-0.028,18,0,47.84,,,,NaN,,,,0 / 0,103609,2018-11-09 17:07:42:593
0.057,-10.391,3.945,10,0,47.84,,,,NaN,,,,0 / 0,103709,2018-11-09 17:07:42:693
-2.116,-12.297,0.622,9,0,57.76,,,,NaN,,,,0 / 0,103809,2018-11-09 17:07:42:793
2.672,-12.948,1.781,12,0,57.76,,,,NaN,,,,0 / 0,103909,2018-11-09 17:07:42:893
-0.785,-11.348,-2.365,1,0,57.76,,,,NaN,,,,0 / 0,104009,2018-11-09 17:07:42:993
-1.426,-14.365,-6.646,25,0,57.76,,,,NaN,,,,0 / 0,104110,2018-11-09 17:07:43:094
-0.21,-8.274,-1.206,15,0,57.05,,,,NaN,,,,0 / 0,104209,2018-11-09 17:07:43:193
-2.786,-4.51,-0.325,6,0,57.05,,,,NaN,,,,0 / 0,104309,2018-11-09 17:07:43:293
-2.413,-12.431,10.266,1,0,57.05,,,,NaN,,,,0 / 0,104409,2018-11-09 17:07:43:393
-3.313,-9.672,4.711,16,0,62.65,,,,NaN,,,,0 / 0,104509,2018-11-09 17:07:43:493
-3.419,-6.052,-4.338,3,0,62.65,,,,NaN,,,,0 / 0,104609,2018-11-09 17:07:43:593
4.932,-14.882,3.265,10,0,62.65,,,,NaN,,,,0 / 0,104709,2018-11-09 17:07:43:693
-4.156,-9.49,1.292,19,0,45.55,,,,NaN,,,,0 / 0,104809,2018-11-09 17:07:43:793
0,-9.73,0.086,20,0,45.55,,,,NaN,,,,0 / 0,104909,2018-11-09 17:07:43:893
-2.413,-10.745,2.154,19,0,45.55,,,,NaN,,,,0 / 0,105009,2018-11-09 17:07:43:993
4.577,-12.392,2.499,14,0,53.91,,,,NaN,,,,0 / 0,105109,2018-11-09 17:07:44:093
0.191,-11.205,2.901,22,0,53.91,,,,NaN,,,,0 / 0,105209,2018-11-09 17:07:44:193
-0.928,-14.068,0.095,14,0,53.91,,,,NaN,,,,0 / 0,105309,2018-11-09 17:07:44:293
0.306,-9.05,-2.193,14,0,51.83,,,,NaN,,,,0 / 0,105410,2018-11-09 17:07:44:394
-2.317,-5.545,-0.354,14,0,51.83,,,,NaN,,,,0 / 0,105509,2018-11-09 17:07:44:493
-2.384,-6.569,8.044,14,0,51.83,,,,NaN,,,,0 / 0,105609,2018-11-09 17:07:44:593
-1.417,-8.322,4.156,21,0,60.68,,,,NaN,,,,0 / 0,105709,2018-11-09 17:07:44:693
-2.758,-16.74,4.769,18,0,60.68,,,,NaN,,,,0 / 0,105809,2018-11-09 17:07:44:793
2.26,-13.934,-4.472,6,0,60.68,,,,NaN,,,,0 / 0,105909,2018-11-09 17:07:44:893
-2.288,-8.552,-1.053,19,0,44.29,,,,NaN,,,,0 / 0,106009,2018-11-09 17:07:44:993
0.009,-8.121,-1.541,11,0,44.29,,,,NaN,,,,0 / 0,106109,2018-11-09 17:07:45:093
-0.249,-10.534,-0.067,16,0,44.29,,,,NaN,,,,0 / 0,106209,2018-11-09 17:07:45:193
2.317,-11.655,1.867,7,0,54.89,,,,NaN,,,,0 / 0,106309,2018-11-09 17:07:45:293
-1.139,-11.617,0.392,15,0,54.89,,,,NaN,,,,0 / 0,106409,2018-11-09 17:07:45:393
-3.198,-15.361,1.944,15,0,54.89,,,,NaN,,,,0 / 0,106509,2018-11-09 17:07:45:493
-0.881,-7.814,-2.078,12,0,60.96,,,,NaN,,,,0 / 0,106609,2018-11-09 17:07:45:593
-2.499,-5.209,0.009,22,0,60.96,,,,NaN,,,,0 / 0,106709,2018-11-09 17:07:45:693
-3.352,-8.293,9.941,6,0,60.96,,,,NaN,,,,0 / 0,106809,2018-11-09 17:07:45:793
0.249,-12.804,7.067,0,0,58.37,,,,NaN,,,,0 / 0,106909,2018-11-09 17:07:45:893
-3.706,-12.833,2.231,2,0,58.37,,,,NaN,,,,0 / 0,107009,2018-11-09 17:07:45:993
3.524,-13.695,-6.589,22,0,58.37,,,,NaN,,,,0 / 0,107109,2018-11-09 17:07:46:093
-2.633,-8.236,-2.394,9,0,49.09,,,,NaN,,,,0 / 0,107209,2018-11-09 17:07:46:193
0.737,-9.347,0.679,5,0,49.09,,,,NaN,,,,0 / 0,107309,2018-11-09 17:07:46:293
-0.67,-10.735,1.091,21,0,49.09,,,,NaN,,,,0 / 0,107410,2018-11-09 17:07:46:394
2.691,-11.981,3.045,9,0,54.8,,,,NaN,,,,0 / 0,107509,2018-11-09 17:07:46:493
-1.541,-11.157,1.187,4,0,54.8,,,,NaN,,,,0 / 0,107609,2018-11-09 17:07:46:593
-4.28,-15.371,3.064,0,0,54.8,,,,NaN,,,,0 / 0,107709,2018-11-09 17:07:46:693
-0.996,-7.891,-0.928,13,0,59.64,,,,NaN,,,,0 / 0,107809,2018-11-09 17:07:46:793
-2.068,-4.003,-0.881,22,0,59.64,,,,NaN,,,,0 / 0,107909,2018-11-09 17:07:46:893
-3.38,-10.984,10.908,24,0,59.64,,,,NaN,,,,0 / 0,108009,2018-11-09 17:07:46:993
-2.25,-10.199,7.719,9,0,61.35,,,,NaN,,,,0 / 0,108109,2018-11-09 17:07:47:093
-3.514,-11.904,-0.747,15,0,61.35,,,,NaN,,,,0 / 0,108209,2018-11-09 17:07:47:193
0.44,-16.989,1.043,11,0,61.35,,,,NaN,,,,0 / 0,108309,2018-11-09 17:07:47:293
-0.852,-8.399,-0.105,27,0,45.25,,,,NaN,,,,0 / 0,108409,2018-11-09 17:07:47:393
-0.976,-8.897,0.823,8,0,45.25,,,,NaN,,,,0 / 0,108509,2018-11-09 17:07:47:493
1.8,-8.839,0.593,17,0,45.25,,,,NaN,,,,0 / 0,108609,2018-11-09 17:07:47:593
-0.948,-12.057,3.131,0,0,50.83,,,,NaN,,,,0 / 0,108709,2018-11-09 17:07:47:693
-0.277,-12.67,3.514,17,0,50.83,,,,NaN,,,,0 / 0,108809,2018-11-09 17:07:47:793
-1.656,-15.945,-1.072,17,0,50.83,,,,NaN,,,,0 / 0,108909,2018-11-09 17:07:47:893
-0.488,-7.632,-2.298,23,0,50.83,,,,NaN,,,,0 / 0,109009,2018-11-09 17:07:47:993
-3.294,-3.447,0,16,0,57.21,,,,NaN,,,,0 / 0,109108,2018-11-09 17:07:48:092
-2.614,-6.771,4.3,21,0,57.21,,,,NaN,,,,0 / 0,109208,2018-11-09 17:07:48:192
5.296,-8.332,2.355,12,0,57.21,,,,NaN,,,,0 / 0,109308,2018-11-09 17:07:48:292
-3.562,-9.433,2.844,32,0,52.42,,,,NaN,,,,0 / 0,109408,2018-11-09 17:07:48:392
4.146,-12.469,-4.051,0,0,52.42,,,,NaN,,,,0 / 0,109508,2018-11-09 17:07:48:492
-0.43,-10.036,-1.024,0,0,52.42,,,,NaN,,,,0 / 0,109608,2018-11-09 17:07:48:592
0.948,-9.921,3.907,26,0,51.15,,,,NaN,,,,0 / 0,109708,2018-11-09 17:07:48:692
-1.972,-6.148,-0.928,34,0,51.15,,,,NaN,,,,0 / 0,109808,2018-11-09 17:07:48:792
0.134,-9.634,0.804,15,0,51.15,,,,NaN,,,,0 / 0,109910,2018-11-09 17:07:48:894
-3.122,-19.614,5.152,22,0,57.04,,,,NaN,,,,0 / 0,110009,2018-11-09 17:07:48:993
-5.842,-6.847,2.135,7,0,57.04,,,,NaN,,,,0 / 0,110109,2018-11-09 17:07:49:093
-0.957,-1.589,0.239,18,0,57.04,,,,NaN,,,,0 / 0,110209,2018-11-09 17:07:49:193
0.43,-15.285,3.17,11,0,65.43,,,,NaN,,,,0 / 0,110309,2018-11-09 17:07:49:293
0.526,-8.504,3.399,25,0,65.43,,,,NaN,,,,0 / 0,110409,2018-11-09 17:07:49:393
-4.156,-19.614,0.9,12,0,65.43,,,,NaN,,,,0 / 0,110509,2018-11-09 17:07:49:493
-1.388,-16.52,-0.756,26,0,47.93,,,,NaN,,,,0 / 0,110609,2018-11-09 17:07:49:593
0.095,-9.644,0.737,11,0,47.93,,,,NaN,,,,0 / 0,110709,2018-11-09 17:07:49:693
-4.099,-4.568,2.892,19,0,47.93,,,,NaN,,,,0 / 0,110809,2018-11-09 17:07:49:793
0.574,-9.739,1.704,9,0,50.98,,,,NaN,,,,0 / 0,110909,2018-11-09 17:07:49:893
-2.901,-18.005,13.676,7,0,50.98,,,,NaN,,,,0 / 0,111010,2018-11-09 17:07:49:994
-1.292,-12.249,3.304,0,0,50.98,,,,NaN,,,,0 / 0,111109,2018-11-09 17:07:50:093
-1.35,-1.072,-0.363,20,0,51.86,,,,NaN,,,,0 / 0,111209,2018-11-09 17:07:50:193
-2.47,-2.279,0,16,0,51.86,,,,NaN,,,,0 / 0,111309,2018-11-09 17:07:50:293
1.666,-11.76,8.763,12,0,51.86,,,,NaN,,,,0 / 0,111409,2018-11-09 17:07:50:393
0.047,-5.813,0.162,20,0,52.46,,,,NaN,,,,0 / 0,111509,2018-11-09 17:07:50:493
-1.561,-18.215,-1.398,18,0,52.46,,,,NaN,,,,0 / 0,111609,2018-11-09 17:07:50:593
0.478,-13.417,1.455,11,0,52.46,,,,NaN,,,,0 / 0,111709,2018-11-09 17:07:50:693
0.785,-10.027,-0.325,7,0,59.26,,,,NaN,,,,0 / 0,111809,2018-11-09 17:07:50:793
-0.881,-8.964,5.707,10,0,59.26,,,,NaN,,,,0 / 0,111909,2018-11-09 17:07:50:893
2.461,-9.577,-0.296,10,0,59.26,,,,NaN,,,,0 / 0,112009,2018-11-09 17:07:50:993
-1.781,-14.011,6.522,3,0,55.57,,,,NaN,,,,0 / 0,112109,2018-11-09 17:07:51:093
-1.79,-15.888,-0.526,13,0,55.57,,,,NaN,,,,0 / 0,112209,2018-11-09 17:07:51:193
-3.352,-7.546,1.522,22,0,55.57,,,,NaN,,,,0 / 0,112309,2018-11-09 17:07:51:293
-1.953,-3.869,-0.507,17,0,51.73,,,,NaN,,,,0 / 0,112409,2018-11-09 17:07:51:393
-0.21,-7.278,2.269,11,0,51.73,,,,NaN,,,,0 / 0,112509,2018-11-09 17:07:51:493
3.715,-12.909,4.903,17,0,51.73,,,,NaN,,,,0 / 0,112609,2018-11-09 17:07:51:593
-4.319,-17.085,-3.581,7,0,43.59,,,,NaN,,,,0 / 0,112709,2018-11-09 17:07:51:693
1.541,-16.52,-1.273,3,0,43.59,,,,NaN,,,,0 / 0,112809,2018-11-09 17:07:51:793
-0.565,-8.782,-1.206,9,0,43.59,,,,NaN,,,,0 / 0,112909,2018-11-09 17:07:51:893
2.432,-8.638,3.629,8,0,53.48,,,,NaN,,,,0 / 0,113009,2018-11-09 17:07:51:993
0.45,-5.478,-0.565,14,0,53.48,,,,NaN,,,,0 / 0,113109,2018-11-09 17:07:52:093
3.141,-9.845,1.647,4,0,53.48,,,,NaN,,,,0 / 0,113209,2018-11-09 17:07:52:193
-5.219,-17.87,0.095,21,0,49.85,,,,NaN,,,,0 / 0,113309,2018-11-09 17:07:52:293
-1.752,-10.333,2.202,23,0,49.85,,,,NaN,,,,0 / 0,113409,2018-11-09 17:07:52:393
-1.752,-4.271,0.22,0,0,49.85,,,,NaN,,,,0 / 0,113509,2018-11-09 17:07:52:493
-2.25,-1.541,1.848,19,0,54.18,,,,NaN,,,,0 / 0,113609,2018-11-09 17:07:52:593
2.968,-14.624,7.546,13,0,54.18,,,,NaN,,,,0 / 0,113709,2018-11-09 17:07:52:693
-3.735,-17.238,4.759,15,0,54.18,,,,NaN,,,,0 / 0,113809,2018-11-09 17:07:52:793
9.481,-14.49,2.126,6,0,46.79,,,,NaN,,,,0 / 0,113909,2018-11-09 17:07:52:893
-7.632,-9.165,-1.024,2,0,46.79,,,,NaN,,,,0 / 0,114009,2018-11-09 17:07:52:993
2.672,-8.533,0,25,0,46.79,,,,NaN,,,,0 / 0,114109,2018-11-09 17:07:53:093
-0.373,-9.079,1.628,9,0,52.98,,,,NaN,,,,0 / 0,114209,2018-11-09 17:07:53:193
0.833,-12.89,1.379,8,0,52.98,,,,NaN,,,,0 / 0,114309,2018-11-09 17:07:53:293
-0.287,-12.019,3.725,15,0,52.98,,,,NaN,,,,0 / 0,114409,2018-11-09 17:07:53:393
-0.747,-13.551,-4.673,0,0,53.64,,,,NaN,,,,0 / 0,114509,2018-11-09 17:07:53:493
0.047,-9.797,-0.823,3,0,53.64,,,,NaN,,,,0 / 0,114609,2018-11-09 17:07:53:593
-1.963,-3.438,-0.114,10,0,53.64,,,,NaN,,,,0 / 0,114709,2018-11-09 17:07:53:693
-2.815,-2.355,3.715,10,0,50.6,,,,NaN,,,,0 / 0,114809,2018-11-09 17:07:53:793
1.886,-9.96,2.93,13,0,50.6,,,,NaN,,,,0 / 0,114909,2018-11-09 17:07:53:893
-1.034,-8.715,4.108,19,0,50.6,,,,NaN,,,,0 / 0,115009,2018-11-09 17:07:53:993
0.967,-17.439,2.921,15,0,46.31,,,,NaN,,,,0 / 0,115109,2018-11-09 17:07:54:093
0.306,-9.356,-0.402,14,0,46.31,,,,NaN,,,,0 / 0,115209,2018-11-09 17:07:54:193
1.216,-11.339,5.42,7,0,46.31,,,,NaN,,,,0 / 0,115309,2018-11-09 17:07:54:293
-0.957,-6.761,0.593,9,0,53.08,,,,NaN,,,,0 / 0,115409,2018-11-09 17:07:54:393
0.459,-7.949,0.344,6,0,53.08,,,,NaN,,,,0 / 0,115509,2018-11-09 17:07:54:493
-2.269,-12.105,8.37,18,0,53.08,,,,NaN,,,,0 / 0,115608,2018-11-09 17:07:54:592
-0.258,-19.614,-0.114,6,0,51.84,,,,NaN,,,,0 / 0,115708,2018-11-09 17:07:54:692
-3.725,-4.108,0.038,25,0,51.84,,,,NaN,,,,0 / 0,115808,2018-11-09 17:07:54:792
-2.097,-3.15,-0.545,0,0,51.84,,,,NaN,,,,0 / 0,115908,2018-11-09 17:07:54:892
0.143,-10.965,8.37,5,0,54.79,,,,NaN,,,,0 / 0,116008,2018-11-09 17:07:54:992
-0.9,-8.159,0.028,16,0,54.79,,,,NaN,,,,0 / 0,116108,2018-11-09 17:07:55:092
-2.672,-16.941,-0.641,14,0,54.79,,,,NaN,,,,0 / 0,116208,2018-11-09 17:07:55:192
0.89,-16.386,1.024,8,0,61.14,,,,NaN,,,,0 / 0,116308,2018-11-09 17:07:55:292
0.737,-11.109,2.729,2,0,61.14,,,,NaN,,,,0 / 0,116409,2018-11-09 17:07:55:393
-0.881,-5.842,2.001,14,0,61.14,,,,NaN,,,,0 / 0,116509,2018-11-09 17:07:55:493
-0.095,-9.548,2.164,22,0,52.32,,,,NaN,,,,0 / 0,116608,2018-11-09 17:07:55:592
2.288,-13.369,4.213,20,0,52.32,,,,NaN,,,,0 / 0,116708,2018-11-09 17:07:55:692
-4.405,-18.809,-0.881,11,0,52.32,,,,NaN,,,,0 / 0,116808,2018-11-09 17:07:55:792
-4.625,-7.968,1.398,5,0,48.08,,,,NaN,,,,0 / 0,116909,2018-11-09 17:07:55:893
0.162,-1.762,0.603,17,0,48.08,,,,NaN,,,,0 / 0,117008,2018-11-09 17:07:55:992
-0.612,-8.705,4.606,10,0,48.08,,,,NaN,,,,0 / 0,117108,2018-11-09 17:07:56:092
1.829,-9.969,4.089,18,0,49.98,,,,NaN,,,,0 / 0,117208,2018-11-09 17:07:56:192
-1.963,-15.064,3.581,7,0,49.98,,,,NaN,,,,0 / 0,117308,2018-11-09 17:07:56:292
2.959,-15.725,-0.124,21,0,49.98,,,,NaN,,,,0 / 0,117409,2018-11-09 17:07:56:393
-2.643,-7.537,-1.762,12,0,58.28,,,,NaN,,,,0 / 0,117509,2018-11-09 17:07:56:493
0.009,-9.136,2.537,11,0,58.28,,,,NaN,,,,0 / 0,117609,2018-11-09 17:07:56:593
-1.216,-4.031,-1.848,25,0,58.28,,,,NaN,,,,0 / 0,117709,2018-11-09 17:07:56:693
1.982,-10.831,2.231,17,0,58.28,,,,NaN,,,,0 / 0,117809,2018-11-09 17:07:56:793
0.517,-13.963,8.581,21,0,48.89,,,,NaN,,,,0 / 0,117909,2018-11-09 17:07:56:893
-0.325,-14.011,1.57,3,0,48.89,,,,NaN,,,,0 / 0,118009,2018-11-09 17:07:56:993
-1.934,-2.911,0.239,19,0,48.89,,,,NaN,,,,0 / 0,118109,2018-11-09 17:07:57:093
-2.26,-3.792,0.833,20,0,47.3,,,,NaN,,,,0 / 0,118209,2018-11-09 17:07:57:193
-0.019,-9.28,7.01,0,0,47.3,,,,NaN,,,,0 / 0,118309,2018-11-09 17:07:57:293
-0.718,-8.025,3.601,0,0,47.3,,,,NaN,,,,0 / 0,118409,2018-11-09 17:07:57:393
-3.696,-15.141,2.25,23,0,45.1,,,,NaN,,,,0 / 0,118509,2018-11-09 17:07:57:493
5.468,-19.594,-2.547,4,0,45.1,,,,NaN,,,,0 / 0,118609,2018-11-09 17:07:57:593
-1.762,-6.991,0.325,11,0,45.1,,,,NaN,,,,0 / 0,118709,2018-11-09 17:07:57:693
0.574,-8.016,3.208,11,0,58.85,,,,NaN,,,,0 / 0,118809,2018-11-09 17:07:57:793
1.398,-6.713,-1.053,21,0,58.85,,,,NaN,,,,0 / 0,118909,2018-11-09 17:07:57:893
0.076,-9.787,1.944,17,0,58.85,,,,NaN,,,,0 / 0,119009,2018-11-09 17:07:57:993
0.996,-17.631,8.667,0,0,55.26,,,,NaN,,,,0 / 0,119109,2018-11-09 17:07:58:093
-5.727,-11.837,2.729,13,0,55.26,,,,NaN,,,,0 / 0,119208,2018-11-09 17:07:58:192
-0.909,-1.714,-0.45,18,0,55.26,,,,NaN,,,,0 / 0,119308,2018-11-09 17:07:58:292
-1.723,-4.185,0.191,10,0,50.14,,,,NaN,,,,0 / 0,119408,2018-11-09 17:07:58:392
-3.658,-8.801,3.888,19,0,50.14,,,,NaN,,,,0 / 0,119508,2018-11-09 17:07:58:492
-4.644,-12.881,4.721,12,0,50.14,,,,NaN,,,,0 / 0,119608,2018-11-09 17:07:58:592
2.748,-13.704,-2.231,1,0,44.21,,,,NaN,,,,0 / 0,119708,2018-11-09 17:07:58:692
-4.041,-9.098,-2.375,24,0,44.21,,,,NaN,,,,0 / 0,119808,2018-11-09 17:07:58:792
1.053,-9.05,0.708,13,0,44.21,,,,NaN,,,,0 / 0,119908,2018-11-09 17:07:58:892
-1.465,-9.577,-1.225,19,0,49.98,,,,NaN,,,,0 / 0,120009,2018-11-09 17:07:58:993
1.982,-10.735,1.781,7,0,49.98,,,,NaN,,,,0 / 0,120109,2018-11-09 17:07:59:093
-4.587,-11.808,7.508,14,0,49.98,,,,NaN,,,,0 / 0,120210,2018-11-09 17:07:59:194
-3.438,-11.856,2.585,9,0,49.92,,,,NaN,,,,0 / 0,120309,2018-11-09 17:07:59:293
-3.869,-3.974,4.309,15,0,49.92,,,,NaN,,,,0 / 0,120409,2018-11-09 17:07:59:393
-4.099,-6.895,9.107,17,0,49.92,,,,NaN,,,,0 / 0,120509,2018-11-09 17:07:59:493
-3.974,-6.464,11.205,8,0,54.47,,,,NaN,,,,0 / 0,120609,2018-11-09 17:07:59:593
-4.175,-6.052,9.203,12,0,54.47,,,,NaN,,,,0 / 0,120709,2018-11-09 17:07:59:693
-3.428,-3.275,6.282,6,0,54.47,,,,NaN,,,,0 / 0,120809,2018-11-09 17:07:59:793
-4.597,-1.857,6.062,7,0,54.57,,,,NaN,,,,0 / 0,120909,2018-11-09 17:07:59:893
-10.601,-3.332,10.276,23,0,54.57,,,,NaN,,,,0 / 0,121009,2018-11-09 17:07:59:993
-9.49,-0.258,9.174,20,0,54.57,,,,NaN,,,,0 / 0,121109,2018-11-09 17:08:00:093
-2.652,-8.485,3.763,0,0,54.3,,,,NaN,,,,0 / 0,121209,2018-11-09 17:08:00:193
-1.58,-13.159,1.35,14,0,54.3,,,,NaN,,,,0 / 0,121309,2018-11-09 17:08:00:293
0.153,-9.73,1.254,16,0,54.3,,,,NaN,,,,0 / 0,121409,2018-11-09 17:08:00:393
0.861,-8.801,3.457,19,0,59.1,,,,NaN,,,,0 / 0,121509,2018-11-09 17:08:00:493
-1.168,-9.739,1.455,27,0,59.1,,,,NaN,,,,0 / 0,121609,2018-11-09 17:08:00:593
-0.191,-10.381,0.201,17,0,59.1,,,,NaN,,,,0 / 0,121709,2018-11-09 17:08:00:693
-1.676,-15.735,-1.666,17,0,59.1,,,,NaN,,,,0 / 0,121809,2018-11-09 17:08:00:793
-3.562,-13.475,9.308,23,0,59.1,,,,NaN,,,,0 / 0,121909,2018-11-09 17:08:00:893
-1.915,-12.325,-13.216,24,0,59.1,,,,NaN,,,,0 / 0,122009,2018-11-09 17:08:00:993
-1.398,-8.14,0.363,16,0,59.34,,,,NaN,,,,0 / 0,122109,2018-11-09 17:08:01:093
-0.574,-0.143,1.676,13,0,59.34,,,,NaN,,,,0 / 0,122209,2018-11-09 17:08:01:193
-2.921,-6.531,4.644,0,0,59.34,,,,NaN,,,,0 / 0,122309,2018-11-09 17:08:01:293
-5.497,-9.443,7.412,10,0,59.34,,,,NaN,,,,0 / 0,122410,2018-11-09 17:08:01:394
-2.806,-9.519,2.691,13,0,63.3,,,,NaN,,,,0 / 0,122509,2018-11-09 17:08:01:493
-0.335,-9.51,0.536,23,0,63.3,,,,NaN,,,,0 / 0,122609,2018-11-09 17:08:01:593
-2.815,-8.724,4.874,18,0,63.3,,,,NaN,,,,0 / 0,122709,2018-11-09 17:08:01:693
1.245,-12.977,1.733,12,0,60.45,,,,NaN,,,,0 / 0,122809,2018-11-09 17:08:01:793
-5.822,-18.436,-1.35,4,0,60.45,,,,NaN,,,,0 / 0,122909,2018-11-09 17:08:01:893
-3.907,-11.664,9.682,0,0,60.45,,,,NaN,,,,0 / 0,123009,2018-11-09 17:08:01:993
2.059,-14.289,-17.42,20,0,57.35,,,,NaN,,,,0 / 0,123109,2018-11-09 17:08:02:093
-0.89,-8.715,-0.038,16,0,57.35,,,,NaN,,,,0 / 0,123209,2018-11-09 17:08:02:193
-0.957,-3.026,1.225,31,0,57.35,,,,NaN,,,,0 / 0,123309,2018-11-09 17:08:02:293
0.842,-6.263,6.636,24,0,58.88,,,,NaN,,,,0 / 0,123409,2018-11-09 17:08:02:393
-3.16,-13.589,8.092,0,0,58.88,,,,NaN,,,,0 / 0,123509,2018-11-09 17:08:02:493
-4.501,-7.68,1.053,23,0,58.88,,,,NaN,,,,0 / 0,123609,2018-11-09 17:08:02:593
1.101,-11.262,1.302,22,0,62.29,,,,NaN,,,,0 / 0,123709,2018-11-09 17:08:02:693
-1.532,-8.111,2.518,14,0,62.29,,,,NaN,,,,0 / 0,123809,2018-11-09 17:08:02:793
-0.076,-10.458,2.461,12,0,62.29,,,,NaN,,,,0 / 0,123909,2018-11-09 17:08:02:893
-1.043,-13.149,-2.202,8,0,62.9,,,,NaN,,,,0 / 0,124009,2018-11-09 17:08:02:993
-2.145,-13.149,8.063,19,0,62.9,,,,NaN,,,,0 / 0,124109,2018-11-09 17:08:03:093
2.672,-14.614,-3.007,0,0,62.9,,,,NaN,,,,0 / 0,124209,2018-11-09 17:08:03:193
-7.182,-7.767,-2.461,1,0,61.89,,,,NaN,,,,0 / 0,124309,2018-11-09 17:08:03:293
0.009,-2.719,0.679,15,0,61.89,,,,NaN,,,,0 / 0,124409,2018-11-09 17:08:03:393
-1.829,-3.409,7.69,0,0,61.89,,,,NaN,,,,0 / 0,124509,2018-11-09 17:08:03:493
4.932,-15.974,6.474,11,0,61.86,,,,NaN,,,,0 / 0,124609,2018-11-09 17:08:03:593
-4.865,-8.044,0.775,17,0,61.86,,,,NaN,,,,0 / 0,124709,2018-11-09 17:08:03:693
1.886,-10.611,1.886,9,0,61.86,,,,NaN,,,,0 / 0,124809,2018-11-09 17:08:03:793
-0.009,-9.146,0.641,22,0,58.99,,,,NaN,,,,0 / 0,124909,2018-11-09 17:08:03:893
-1.187,-8.705,1.676,0,0,58.99,,,,NaN,,,,0 / 0,125009,2018-11-09 17:08:03:993
1.743,-14.02,1.733,30,0,58.99,,,,NaN,,,,0 / 0,125109,2018-11-09 17:08:04:093
-6.55,-17.066,-1.829,31,0,56.95,,,,NaN,,,,0 / 0,125209,2018-11-09 17:08:04:193
-3.83,-12.632,15.246,24,0,56.95,,,,NaN,,,,0 / 0,125309,2018-11-09 17:08:04:293
-1.436,-10.448,4.903,2,0,56.95,,,,NaN,,,,0 / 0,125409,2018-11-09 17:08:04:393
-2.212,-3.869,0.325,8,0,59.65,,,,NaN,,,,0 / 0,125509,2018-11-09 17:08:04:493
-2.212,-1.149,1.838,4,0,59.65,,,,NaN,,,,0 / 0,125609,2018-11-09 17:08:04:593
0.43,-5.755,5.822,21,0,59.65,,,,NaN,,,,0 / 0,125709,2018-11-09 17:08:04:693
10.87,-18.225,-2.825,12,0,63.7,,,,NaN,,,,0 / 0,125809,2018-11-09 17:08:04:793
-6.225,-7.91,1.407,17,0,63.7,,,,NaN,,,,0 / 0,125909,2018-11-09 17:08:04:893
1.254,-9.174,1.446,8,0,63.7,,,,NaN,,,,0 / 0,126009,2018-11-09 17:08:04:993
-0.162,-8.954,0.181,22,0,60.24,,,,NaN,,,,0 / 0,126109,2018-11-09 17:08:05:093
-0.392,-9.136,0.852,16,0,60.24,,,,NaN,,,,0 / 0,126210,2018-11-09 17:08:05:194
4.242,-10.917,1.79,12,0,60.24,,,,NaN,,,,0 / 0,126309,2018-11-09 17:08:05:293
-1.216,-10.324,1.245,7,0,55.28,,,,NaN,,,,0 / 0,126409,2018-11-09 17:08:05:393
0.469,-17.842,-3.313,24,0,55.28,,,,NaN,,,,0 / 0,126509,2018-11-09 17:08:05:493
-2.087,-13.187,9.194,19,0,55.28,,,,NaN,,,,0 / 0,126609,2018-11-09 17:08:05:593
-8.887,-14.145,-13.053,12,0,58.97,,,,NaN,,,,0 / 0,126709,2018-11-09 17:08:05:693
3.936,-12.297,-1.58,17,0,58.97,,,,NaN,,,,0 / 0,126809,2018-11-09 17:08:05:793
-0.22,-3.687,0.861,14,0,58.97,,,,NaN,,,,0 / 0,126909,2018-11-09 17:08:05:893
-2.116,0.363,3.648,10,0,60.7,,,,NaN,,,,0 / 0,127009,2018-11-09 17:08:05:993
-3.409,-2.241,11.53,9,0,60.7,,,,NaN,,,,0 / 0,127109,2018-11-09 17:08:06:093
-4.319,-3.811,9.854,10,0,60.7,,,,NaN,,,,0 / 0,127209,2018-11-09 17:08:06:193
-19.096,-10.094,19.307,17,0,60.2,,,,NaN,,,,0 / 0,127309,2018-11-09 17:08:06:293
1.8,-7.575,-2.853,15,0,60.2,,,,NaN,,,,0 / 0,127409,2018-11-09 17:08:06:393
0.545,-9.414,0.507,7,0,60.2,,,,NaN,,,,0 / 0,127509,2018-11-09 17:08:06:493
3.026,-12.45,2.154,16,0,60.2,,,,NaN,,,,0 / 0,127609,2018-11-09 17:08:06:593
-3.792,-8.705,2.7,17,0,62.76,,,,NaN,,,,0 / 0,127709,2018-11-09 17:08:06:693
4.367,-15.342,-3.61,15,0,62.76,,,,NaN,,,,0 / 0,127809,2018-11-09 17:08:06:793
-0.296,-14.509,3.332,13,0,62.76,,,,NaN,,,,0 / 0,127909,2018-11-09 17:08:06:893
-1.101,-10.056,7.077,15,0,62.05,,,,NaN,,,,0 / 0,128009,2018-11-09 17:08:06:993
-2.451,-10.132,13.599,13,0,62.05,,,,NaN,,,,0 / 0,128109,2018-11-09 17:08:07:093
-2.652,-3.773,0.67,24,0,62.05,,,,NaN,,,,0 / 0,128209,2018-11-09 17:08:07:193
-2.509,-0.105,3.093,20,0,60.06,,,,NaN,,,,0 / 0,128309,2018-11-09 17:08:07:293
-3.122,-6.301,7.048,4,0,60.06,,,,NaN,,,,0 / 0,128409,2018-11-09 17:08:07:393
-0.067,-15.074,0.948,14,0,60.06,,,,NaN,,,,0 / 0,128509,2018-11-09 17:08:07:493
-4.204,-12.249,2.509,12,0,63.09,,,,NaN,,,,0 / 0,128609,2018-11-09 17:08:07:593
1.532,-10.592,0.373,7,0,63.09,,,,NaN,,,,0 / 0,128709,2018-11-09 17:08:07:693
-3.217,-8.14,2.739,21,0,63.09,,,,NaN,,,,0 / 0,128809,2018-11-09 17:08:07:793
1.177,-12.862,1.149,12,0,60.68,,,,NaN,,,,0 / 0,128909,2018-11-09 17:08:07:893
-3.284,-15.218,-0.22,11,0,60.68,,,,NaN,,,,0 / 0,129009,2018-11-09 17:08:07:993
-0.057,-11.377,8.973,14,0,60.68,,,,NaN,,,,0 / 0,129108,2018-11-09 17:08:08:092
1.053,-13.819,-13.149,10,0,54.11,,,,NaN,,,,0 / 0,129221,2018-11-09 17:08:08:205
-7.259,-9.902,-1.312,0,0,54.11,,,,NaN,,,,0 / 0,129308,2018-11-09 17:08:08:292
-1.695,-3.964,0.44,6,0,54.11,,,,NaN,,,,0 / 0,129408,2018-11-09 17:08:08:392
0.766,-3.773,7.374,9,0,57.14,,,,NaN,,,,0 / 0,129508,2018-11-09 17:08:08:492
-6.502,-8.772,8.408,13,0,57.14,,,,NaN,,,,0 / 0,129608,2018-11-09 17:08:08:592
-4.319,-6.608,-0.181,22,0,57.14,,,,NaN,,,,0 / 0,129708,2018-11-09 17:08:08:692
1.379,-9.883,0.89,11,0,63.03,,,,NaN,,,,0 / 0,129808,2018-11-09 17:08:08:792
0.402,-9.376,-0.622,15,0,63.03,,,,NaN,,,,0 / 0,129909,2018-11-09 17:08:08:893
-1.273,-9.127,1.925,15,0,63.03,,,,NaN,,,,0 / 0,130008,2018-11-09 17:08:08:992
-0.421,-13.637,-0.498,8,0,61.82,,,,NaN,,,,0 / 0,130108,2018-11-09 17:08:09:092
-10.075,-13.197,1.561,15,0,61.82,,,,NaN,,,,0 / 0,130208,2018-11-09 17:08:09:192
-2.154,-13.963,5.842,39,0,61.82,,,,NaN,,,,0 / 0,130308,2018-11-09 17:08:09:292
-6.866,-11.952,16.578,0,0,59.19,,,,NaN,,,,0 / 0,130408,2018-11-09 17:08:09:392
-1.187,-1.886,0.536,8,0,59.19,,,,NaN,,,,0 / 0,130508,2018-11-09 17:08:09:492
-1.704,-1.292,5.573,21,0,59.19,,,,NaN,,,,0 / 0,130608,2018-11-09 17:08:09:592
-4.951,-12.833,8.992,4,0,59.14,,,,NaN,,,,0 / 0,130709,2018-11-09 17:08:09:693
-3.677,-8.609,-0.191,11,0,59.14,,,,NaN,,,,0 / 0,130809,2018-11-09 17:08:09:793
0.268,-10.697,1.13,13,0,59.14,,,,NaN,,,,0 / 0,130909,2018-11-09 17:08:09:893
0.498,-10.707,0.526,20,0,59.78,,,,NaN,,,,0 / 0,131009,2018-11-09 17:08:09:993
-0.45,-8.945,1.915,19,0,59.78,,,,NaN,,,,0 / 0,131109,2018-11-09 17:08:10:093
-0.756,-13.015,-0.057,14,0,59.78,,,,NaN,,,,0 / 0,131209,2018-11-09 17:08:10:193
-5.066,-15.064,5.88,19,0,62.42,,,,NaN,,,,0 / 0,131309,2018-11-09 17:08:10:293
-4.338,-18.407,-7.767,6,0,62.42,,,,NaN,,,,0 / 0,131409,2018-11-09 17:08:10:393
-0.459,-11.597,1.312,7,0,62.42,,,,NaN,,,,0 / 0,131509,2018-11-09 17:08:10:493
0.21,-2.873,-0.258,18,0,59.35,,,,NaN,,,,0 / 0,131609,2018-11-09 17:08:10:593
-0.766,1.494,2.643,10,0,59.35,,,,NaN,,,,0 / 0,131709,2018-11-09 17:08:10:693
-0.344,-2.863,18.177,5,0,59.35,,,,NaN,,,,0 / 0,131809,2018-11-09 17:08:10:793
-4.769,-3.332,11.186,13,0,64.12,,,,NaN,,,,0 / 0,131909,2018-11-09 17:08:10:893
-3.735,-2.231,-2.901,12,0,64.12,,,,NaN,,,,0 / 0,132009,2018-11-09 17:08:10:993
-2.183,-11.119,4.185,23,0,64.12,,,,NaN,,,,0 / 0,132109,2018-11-09 17:08:11:093
-0.938,-11.166,1.513,14,0,61.62,,,,NaN,,,,0 / 0,132209,2018-11-09 17:08:11:193
2.097,-12.584,1.426,14,0,61.62,,,,NaN,,,,0 / 0,132309,2018-11-09 17:08:11:293
0.277,-7.996,-0.124,17,0,61.62,,,,NaN,,,,0 / 0,132409,2018-11-09 17:08:11:393
2.135,-10.937,1.388,2,0,64.28,,,,NaN,,,,0 / 0,132509,2018-11-09 17:08:11:493
-0.325,-12.134,2.442,1,0,64.28,,,,NaN,,,,0 / 0,132609,2018-11-09 17:08:11:593
1.848,-12.22,-2.355,8,0,64.28,,,,NaN,,,,0 / 0,132709,2018-11-09 17:08:11:693
-7.642,-15.945,0.766,9,0,62.06,,,,NaN,,,,0 / 0,132809,2018-11-09 17:08:11:793
-2.892,-7,-1.714,17,0,62.06,,,,NaN,,,,0 / 0,132909,2018-11-09 17:08:11:893
1.369,-4.012,-2.346,11,0,62.06,,,,NaN,,,,0 / 0,133009,2018-11-09 17:08:11:993
-4.788,-7.757,14.02,12,0,55.46,,,,NaN,,,,0 / 0,133109,2018-11-09 17:08:12:093
-3.907,-12.9,12.153,19,0,55.46,,,,NaN,,,,0 / 0,133209,2018-11-09 17:08:12:193
-6.589,-14.873,-4.118,9,0,55.46,,,,NaN,,,,0 / 0,133309,2018-11-09 17:08:12:293
1.474,-3.495,-6.186,18,0,47.55,,,,NaN,,,,0 / 0,133409,2018-11-09 17:08:12:393
-0.584,-9.462,1.072,16,0,47.55,,,,NaN,,,,0 / 0,133509,2018-11-09 17:08:12:493
-0.325,-8.59,-1.886,9,0,47.55,,,,NaN,,,,0 / 0,133609,2018-11-09 17:08:12:593
-0.9,-9.299,0.306,5,0,65.26,,,,NaN,,,,0 / 0,133710,2018-11-09 17:08:12:694
3.639,-11.923,1.302,24,0,65.26,,,,NaN,,,,0 / 0,133809,2018-11-09 17:08:12:793
-3.38,-13.58,1.072,6,0,65.26,,,,NaN,,,,0 / 0,133909,2018-11-09 17:08:12:893
-9.079,-15.514,2.212,3,0,65.26,,,,NaN,,,,0 / 0,134009,2018-11-09 17:08:12:993
-2.241,-7.537,-0.392,16,0,56.18,,,,NaN,,,,0 / 0,134109,2018-11-09 17:08:13:093
-0.507,-3.399,-1.676,5,0,56.18,,,,NaN,,,,0 / 0,134209,2018-11-09 17:08:13:193
-2.71,-6.32,11.071,11,0,56.18,,,,NaN,,,,0 / 0,134309,2018-11-09 17:08:13:293
-3.629,-11.559,11.846,7,0,55.77,,,,NaN,,,,0 / 0,134409,2018-11-09 17:08:13:393
-8.322,-14.921,0.612,12,0,55.77,,,,NaN,,,,0 / 0,134509,2018-11-09 17:08:13:493
2.346,-7.383,-6.838,18,0,55.77,,,,NaN,,,,0 / 0,134609,2018-11-09 17:08:13:593
-2.911,-8.035,-0.766,21,0,48.67,,,,NaN,,,,0 / 0,134709,2018-11-09 17:08:13:693
0.689,-10.601,1.005,13,0,48.67,,,,NaN,,,,0 / 0,134809,2018-11-09 17:08:13:793
2.145,-10.735,0.612,10,0,48.67,,,,NaN,,,,0 / 0,134909,2018-11-09 17:08:13:893
3.486,-12.718,2.298,14,0,63.28,,,,NaN,,,,0 / 0,135009,2018-11-09 17:08:13:993
-9.107,-12.459,0.009,0,0,63.28,,,,NaN,,,,0 / 0,135109,2018-11-09 17:08:14:093
-7.202,-12.699,1.599,0,0,63.28,,,,NaN,,,,0 / 0,135209,2018-11-09 17:08:14:193
-0.114,-8.753,2.336,9,0,54.91,,,,NaN,,,,0 / 0,135309,2018-11-09 17:08:14:293
-1.235,-2.557,-0.957,13,0,54.91,,,,NaN,,,,0 / 0,135409,2018-11-09 17:08:14:393
-4.099,-8.427,15.265,2,0,54.91,,,,NaN,,,,0 / 0,135509,2018-11-09 17:08:14:493
-4.012,-10.391,9.519,20,0,54.5,,,,NaN,,,,0 / 0,135609,2018-11-09 17:08:14:593
-2.853,-7.048,-2.681,11,0,54.5,,,,NaN,,,,0 / 0,135709,2018-11-09 17:08:14:693
4.376,-15.007,6.617,7,0,54.5,,,,NaN,,,,0 / 0,135809,2018-11-09 17:08:14:793
0.105,-9.596,-1.12,6,0,50.34,,,,NaN,,,,0 / 0,135909,2018-11-09 17:08:14:893
0.287,-8.37,-2.949,20,0,50.34,,,,NaN,,,,0 / 0,136009,2018-11-09 17:08:14:993
0.919,-13.197,2.039,23,0,50.34,,,,NaN,,,,0 / 0,136109,2018-11-09 17:08:15:093
2.528,-11.866,1.829,15,0,60.96,,,,NaN,,,,0 / 0,136209,2018-11-09 17:08:15:193
-3.352,-12.086,-3.792,27,0,60.96,,,,NaN,,,,0 / 0,136309,2018-11-09 17:08:15:293
-7.316,-10.199,2.49,11,0,60.96,,,,NaN,,,,0 / 0,136410,2018-11-09 17:08:15:394
0.545,-8.581,-0.22,13,0,58.9,,,,NaN,,,,0 / 0,136509,2018-11-09 17:08:15:493
-1.34,-2.346,-0.478,17,0,58.9,,,,NaN,,,,0 / 0,136609,2018-11-09 17:08:15:593
-5.478,-17.554,18.474,6,0,58.9,,,,NaN,,,,0 / 0,136709,2018-11-09 17:08:15:693
-3.313,-10.678,3.926,5,0,53.41,,,,NaN,,,,0 / 0,136809,2018-11-09 17:08:15:793
-0.584,-4.941,-5.401,16,0,53.41,,,,NaN,,,,0 / 0,136909,2018-11-09 17:08:15:893
3.754,-10.554,4.759,14,0,53.41,,,,NaN,,,,0 / 0,137009,2018-11-09 17:08:15:993
-1.139,-9.261,0.383,8,0,51.78,,,,NaN,,,,0 / 0,137109,2018-11-09 17:08:16:093
0.181,-8.801,-0.181,13,0,51.78,,,,NaN,,,,0 / 0,137209,2018-11-09 17:08:16:193
1.177,-12.708,-0.038,2,0,51.78,,,,NaN,,,,0 / 0,137308,2018-11-09 17:08:16:292
2.518,-12.287,4.367,14,0,59.96,,,,NaN,,,,0 / 0,137408,2018-11-09 17:08:16:392
-5.554,-16.664,-0.967,14,0,59.96,,,,NaN,,,,0 / 0,137509,2018-11-09 17:08:16:493
-3.85,-14.183,-2.183,8,0,59.96,,,,NaN,,,,0 / 0,137608,2018-11-09 17:08:16:592
1.177,-6.273,-0.881,1,0,55.72,,,,NaN,,,,0 / 0,137708,2018-11-09 17:08:16:692
-6.1,1.398,7.92,4,0,55.72,,,,NaN,,,,0 / 0,137808,2018-11-09 17:08:16:792
-8.274,-4.529,9.625,15,0,55.72,,,,NaN,,,,0 / 0,137909,2018-11-09 17:08:16:893
-2.231,-19.144,11.329,24,0,59.62,,,,NaN,,,,0 / 0,138008,2018-11-09 17:08:16:992
-0.239,-8.236,-1.436,18,0,59.62,,,,NaN,,,,0 / 0,138108,2018-11-09 17:08:17:092
0.43,-7.929,0.478,1,0,59.62,,,,NaN,,,,0 / 0,138209,2018-11-09 17:08:17:193
0.756,-11.004,0.89,10,0,58.07,,,,NaN,,,,0 / 0,138308,2018-11-09 17:08:17:292
0.881,-11.894,0.823,4,0,58.07,,,,NaN,,,,0 / 0,138408,2018-11-09 17:08:17:392
-0.469,-15.945,0.718,34,0,58.07,,,,NaN,,,,0 / 0,138508,2018-11-09 17:08:17:492
-0.928,-11.77,9.347,0,0,61.31,,,,NaN,,,,0 / 0,138608,2018-11-09 17:08:17:592
-4.922,-12.431,-13.446,17,0,61.31,,,,NaN,,,,0 / 0,138708,2018-11-09 17:08:17:692
-0.871,-8.753,-0.44,16,0,61.31,,,,NaN,,,,0 / 0,138808,2018-11-09 17:08:17:792
-1.733,-1.685,1.024,17,0,59.78,,,,NaN,,,,0 / 0,138909,2018-11-09 17:08:17:893
-1.838,-5.937,4.003,8,0,59.78,,,,NaN,,,,0 / 0,139008,2018-11-09 17:08:17:992
-2.806,-17.439,4.817,18,0,59.78,,,,NaN,,,,0 / 0,139109,2018-11-09 17:08:18:093
-2.911,-8.006,0.976,19,0,59.78,,,,NaN,,,,0 / 0,139209,2018-11-09 17:08:18:193
0.957,-10.218,-1.446,7,0,59.78,,,,NaN,,,,0 / 0,139308,2018-11-09 17:08:18:292
-2.154,-8.063,1.551,19,0,59.78,,,,NaN,,,,0 / 0,139409,2018-11-09 17:08:18:393
3.208,-12.517,2.604,5,0,64.46,,,,NaN,,,,0 / 0,139508,2018-11-09 17:08:18:492
-3.543,-12.919,-3.352,12,0,64.46,,,,NaN,,,,0 / 0,139608,2018-11-09 17:08:18:592
-2.231,-15.141,6.435,20,0,64.46,,,,NaN,,,,0 / 0,139708,2018-11-09 17:08:18:692
4.462,-15.677,-6.215,31,0,55.83,,,,NaN,,,,0 / 0,139808,2018-11-09 17:08:18:792
-6.522,-8.14,1.302,12,0,55.83,,,,NaN,,,,0 / 0,139908,2018-11-09 17:08:18:892
-0.201,-2.585,1.455,13,0,55.83,,,,NaN,,,,0 / 0,140008,2018-11-09 17:08:18:992
-0.172,-3.821,7.125,11,0,59.53,,,,NaN,,,,0 / 0,140108,2018-11-09 17:08:19:092
2.059,-14.461,3.102,21,0,59.53,,,,NaN,,,,0 / 0,140210,2018-11-09 17:08:19:194
-4.137,-6.445,1.379,7,0,59.53,,,,NaN,,,,0 / 0,140309,2018-11-09 17:08:19:293
2.231,-12.201,-0.498,8,0,60.37,,,,NaN,,,,0 / 0,140409,2018-11-09 17:08:19:393
-2.7,-7.853,3.026,14,0,60.37,,,,NaN,,,,0 / 0,140509,2018-11-09 17:08:19:493
4.328,-14.758,3.083,5,0,60.37,,,,NaN,,,,0 / 0,140609,2018-11-09 17:08:19:593
-3.179,-19.556,-0.584,5,0,55.61,,,,NaN,,,,0 / 0,140708,2018-11-09 17:08:19:692
-0.775,-12.134,11.387,27,0,55.61,,,,NaN,,,,0 / 0,140808,2018-11-09 17:08:19:792
-2.758,-8.964,-14.394,5,0,55.61,,,,NaN,,,,0 / 0,140908,2018-11-09 17:08:19:892
-1.015,-5.918,0.612,3,0,60.72,,,,NaN,,,,0 / 0,141008,2018-11-09 17:08:19:992
-2.317,-3.409,1.637,14,0,60.72,,,,NaN,,,,0 / 0,141108,2018-11-09 17:08:20:092
-7.565,-6.129,5.248,28,0,60.72,,,,NaN,,,,0 / 0,141208,2018-11-09 17:08:20:192
-0.699,-8.849,2.901,6,0,60.68,,,,NaN,,,,0 / 0,141308,2018-11-09 17:08:20:292
-3.543,-11.866,2.729,0,0,60.68,,,,NaN,,,,0 / 0,141408,2018-11-09 17:08:20:392
0.89,-9.586,-0.938,17,0,60.68,,,,NaN,,,,0 / 0,141508,2018-11-09 17:08:20:492
-4.434,-8.849,2.193,28,0,67.24,,,,NaN,,,,0 / 0,141608,2018-11-09 17:08:20:592
1.886,-13.35,0.574,12,0,67.24,,,,NaN,,,,0 / 0,141709,2018-11-09 17:08:20:693
-5.075,-15.965,-0.162,0,0,67.24,,,,NaN,,,,0 / 0,141809,2018-11-09 17:08:20:793
-0.689,-13.226,12.459,17,0,54.66,,,,NaN,,,,0 / 0,141909,2018-11-09 17:08:20:893
-5.114,-9.807,-16.673,11,0,54.66,,,,NaN,,,,0 / 0,142009,2018-11-09 17:08:20:993
-1.905,-5.085,0.909,22,0,54.66,,,,NaN,,,,0 / 0,142109,2018-11-09 17:08:21:093
-1.302,-0.498,2.413,23,0,57.88,,,,NaN,,,,0 / 0,142209,2018-11-09 17:08:21:193
-0.679,-7.364,11.712,10,0,57.88,,,,NaN,,,,0 / 0,142309,2018-11-09 17:08:21:293
4.951,-7.556,0,7,0,57.88,,,,NaN,,,,0 / 0,142409,2018-11-09 17:08:21:393
-3.007,-8.236,2.739,15,0,57.88,,,,NaN,,,,0 / 0,142510,2018-11-09 17:08:21:494
0.22,-10.333,1.714,21,0,62.37,,,,NaN,,,,0 / 0,142609,2018-11-09 17:08:21:593
1.886,-12.105,1.34,12,0,62.37,,,,NaN,,,,0 / 0,142709,2018-11-09 17:08:21:693
-1.532,-8.312,0.718,23,0,62.37,,,,NaN,,,,0 / 0,142809,2018-11-09 17:08:21:793
-0.057,-9.921,0.632,19,0,65.57,,,,NaN,,,,0 / 0,142909,2018-11-09 17:08:21:893
-0.986,-13.848,-4.865,0,0,65.57,,,,NaN,,,,0 / 0,143009,2018-11-09 17:08:21:993
-1.484,-16.941,0,10,0,65.57,,,,NaN,,,,0 / 0,143109,2018-11-09 17:08:22:093
0.469,-12.076,9.672,5,0,58.48,,,,NaN,,,,0 / 0,143209,2018-11-09 17:08:22:193
-10.18,-11.377,-3.361,19,0,58.48,,,,NaN,,,,0 / 0,143309,2018-11-09 17:08:22:293
1.197,-11.674,-0.507,27,0,58.48,,,,NaN,,,,0 / 0,143409,2018-11-09 17:08:22:393
-0.861,-5.746,1.35,15,0,63.01,,,,NaN,,,,0 / 0,143509,2018-11-09 17:08:22:493
-2.135,0.363,3.026,25,0,63.01,,,,NaN,,,,0 / 0,143609,2018-11-09 17:08:22:593
-3.668,-4.3,8.466,6,0,63.01,,,,NaN,,,,0 / 0,143709,2018-11-09 17:08:22:693
-8.571,-7.326,12.009,18,0,62.2,,,,NaN,,,,0 / 0,143809,2018-11-09 17:08:22:793
-5.181,-5.746,2.164,24,0,62.2,,,,NaN,,,,0 / 0,143909,2018-11-09 17:08:22:893
-0.565,-10.879,2.384,13,0,62.2,,,,NaN,,,,0 / 0,144009,2018-11-09 17:08:22:993
-0.919,-8.6,2.241,1,0,52.5,,,,NaN,,,,0 / 0,144109,2018-11-09 17:08:23:093
1.197,-10.889,1.704,7,0,52.5,,,,NaN,,,,0 / 0,144209,2018-11-09 17:08:23:193
-1.762,-8.504,1.838,5,0,52.5,,,,NaN,,,,0 / 0,144309,2018-11-09 17:08:23:293
1.13,-11.119,2.03,0,0,64.2,,,,NaN,,,,0 / 0,144409,2018-11-09 17:08:23:393
-0.775,-12.555,-2.796,2,0,64.2,,,,NaN,,,,0 / 0,144509,2018-11-09 17:08:23:493
-1.407,-15.103,2.873,14,0,64.2,,,,NaN,,,,0 / 0,144609,2018-11-09 17:08:23:593
-1.81,-10.343,7.039,1,0,57.67,,,,NaN,,,,0 / 0,144709,2018-11-09 17:08:23:693
-7.307,-8.561,-7.297,14,0,57.67,,,,NaN,,,,0 / 0,144809,2018-11-09 17:08:23:793
0.383,-10.908,2.049,6,0,57.67,,,,NaN,,,,0 / 0,144909,2018-11-09 17:08:23:893
-2.03,-4.156,1.302,10,0,59.93,,,,NaN,,,,0 / 0,145010,2018-11-09 17:08:23:994
-2.537,-2.815,7.364,31,0,59.93,,,,NaN,,,,0 / 0,145109,2018-11-09 17:08:24:093
-7.412,-8.973,11.052,16,0,59.93,,,,NaN,,,,0 / 0,145209,2018-11-09 17:08:24:193
0.019,-8.293,5.286,7,0,57.3,,,,NaN,,,,0 / 0,145309,2018-11-09 17:08:24:293
-1.13,-7.709,2.796,23,0,57.3,,,,NaN,,,,0 / 0,145409,2018-11-09 17:08:24:393
-1.541,-10.247,2.94,1,0,57.3,,,,NaN,,,,0 / 0,145509,2018-11-09 17:08:24:493
-0.545,-8.657,2.355,17,0,58.92,,,,NaN,,,,0 / 0,145609,2018-11-09 17:08:24:593
-0.086,-10.343,1.666,19,0,58.92,,,,NaN,,,,0 / 0,145709,2018-11-09 17:08:24:693
-0.804,-9.069,0.574,7,0,58.92,,,,NaN,,,,0 / 0,145809,2018-11-09 17:08:24:793
-0.517,-9.653,1.465,22,0,62.9,,,,NaN,,,,0 / 0,145909,2018-11-09 17:08:24:893
-0.067,-11.674,-0.095,14,0,62.9,,,,NaN,,,,0 / 0,146009,2018-11-09 17:08:24:993
-4.874,-17.823,-1.618,6,0,62.9,,,,NaN,,,,0 / 0,146109,2018-11-09 17:08:25:093
-2.26,-11.588,7.489,11,0,59.24,,,,NaN,,,,0 / 0,146209,2018-11-09 17:08:25:193
0.143,-13.139,-7.058,6,0,59.24,,,,NaN,,,,0 / 0,146309,2018-11-09 17:08:25:293
-4.96,-10.151,10.937,8,0,59.24,,,,NaN,,,,0 / 0,146409,2018-11-09 17:08:25:393
-4.099,-6.838,3.275,24,0,59.33,,,,NaN,,,,0 / 0,146509,2018-11-09 17:08:25:493
-2.241,-2.365,4.932,15,0,59.33,,,,NaN,,,,0 / 0,146609,2018-11-09 17:08:25:593
-1.34,-5.956,7.968,7,0,59.33,,,,NaN,,,,0 / 0,146709,2018-11-09 17:08:25:693
-4.539,-9.002,10.429,19,0,57.19,,,,NaN,,,,0 / 0,146809,2018-11-09 17:08:25:793
-1.982,-10.305,6.675,11,0,57.19,,,,NaN,,,,0 / 0,146909,2018-11-09 17:08:25:893
-2.853,-6.043,2.921,9,0,57.19,,,,NaN,,,,0 / 0,147009,2018-11-09 17:08:25:993
1.34,-10.199,1.963,4,0,50.44,,,,NaN,,,,0 / 0,147109,2018-11-09 17:08:26:093
0.114,-10.898,0.469,1,0,50.44,,,,NaN,,,,0 / 0,147209,2018-11-09 17:08:26:193
-1.34,-8.906,0.478,20,0,50.44,,,,NaN,,,,0 / 0,147309,2018-11-09 17:08:26:293
-0.679,-9.232,1.149,7,0,58.53,,,,NaN,,,,0 / 0,147409,2018-11-09 17:08:26:393
0.976,-11.119,1.474,5,0,58.53,,,,NaN,,,,0 / 0,147509,2018-11-09 17:08:26:493
-1.79,-11.272,0.067,9,0,58.53,,,,NaN,,,,0 / 0,147609,2018-11-09 17:08:26:593
-1.58,-15.725,-0.306,16,0,54.42,,,,NaN,,,,0 / 0,147709,2018-11-09 17:08:26:693
-1.647,-11.052,6.598,0,0,54.42,,,,NaN,,,,0 / 0,147809,2018-11-09 17:08:26:793
1.177,-14.231,-6.866,9,0,54.42,,,,NaN,,,,0 / 0,147909,2018-11-09 17:08:26:893
-2.796,-10.735,5.765,14,0,54.42,,,,NaN,,,,0 / 0,148009,2018-11-09 17:08:26:993
-2.47,-5.257,2.576,7,0,62.96,,,,NaN,,,,0 / 0,148109,2018-11-09 17:08:27:093
-1.838,-2.039,6.531,27,0,62.96,,,,NaN,,,,0 / 0,148209,2018-11-09 17:08:27:193
-7.546,-6.091,11.99,2,0,62.96,,,,NaN,,,,0 / 0,148309,2018-11-09 17:08:27:293
-2.365,-9.941,3.189,15,0,57.69,,,,NaN,,,,0 / 0,148409,2018-11-09 17:08:27:393
-5.985,-9.692,1.015,15,0,57.69,,,,NaN,,,,0 / 0,148509,2018-11-09 17:08:27:493
1.292,-9.864,2.758,0,0,57.69,,,,NaN,,,,0 / 0,148609,2018-11-09 17:08:27:593
-0.344,-8.925,0.699,19,0,57.57,,,,NaN,,,,0 / 0,148709,2018-11-09 17:08:27:693
-1.436,-9.098,0.421,7,0,57.57,,,,NaN,,,,0 / 0,148809,2018-11-09 17:08:27:793
-0.785,-10.87,2.097,12,0,57.57,,,,NaN,,,,0 / 0,148909,2018-11-09 17:08:27:893
-1.359,-11.444,-1.589,16,0,55.48,,,,NaN,,,,0 / 0,149009,2018-11-09 17:08:27:993
-2.921,-15.084,-0.89,1,0,55.48,,,,NaN,,,,0 / 0,149109,2018-11-09 17:08:28:093
-2.384,-11.53,6.512,14,0,55.48,,,,NaN,,,,0 / 0,149209,2018-11-09 17:08:28:193
5.133,-14.576,-4.29,20,0,56.29,,,,NaN,,,,0 / 0,149309,2018-11-09 17:08:28:293
-3.955,-9.692,7.087,6,0,56.29,,,,NaN,,,,0 / 0,149409,2018-11-09 17:08:28:393
-2.116,-7.431,4.204,9,0,56.29,,,,NaN,,,,0 / 0,149509,2018-11-09 17:08:28:493
-3.179,-2.959,3.476,15,0,58.56,,,,NaN,,,,0 / 0,149608,2018-11-09 17:08:28:592
-1.819,-3.83,7.431,15,0,58.56,,,,NaN,,,,0 / 0,149708,2018-11-09 17:08:28:692
-2.537,-6.723,11.262,3,0,58.56,,,,NaN,,,,0 / 0,149808,2018-11-09 17:08:28:792
-7.518,-8.561,10.017,13,0,59.77,,,,NaN,,,,0 / 0,149908,2018-11-09 17:08:28:892
-7.451,-8.351,6.368,17,0,59.77,,,,NaN,,,,0 / 0,150008,2018-11-09 17:08:28:992
-3.562,-8.868,2.566,21,0,59.77,,,,NaN,,,,0 / 0,150108,2018-11-09 17:08:29:092
0.593,-10.065,3.074,21,0,50.78,,,,NaN,,,,0 / 0,150208,2018-11-09 17:08:29:192
-0.909,-9.308,1.513,17,0,50.78,,,,NaN,,,,0 / 0,150309,2018-11-09 17:08:29:293
0.009,-9.979,1.11,3,0,50.78,,,,NaN,,,,0 / 0,150409,2018-11-09 17:08:29:393
-1.043,-9.557,0.727,13,0,61.97,,,,NaN,,,,0 / 0,150508,2018-11-09 17:08:29:492
-1.072,-9.395,-0.057,17,0,61.97,,,,NaN,,,,0 / 0,150608,2018-11-09 17:08:29:592
-0.373,-9.988,-0.536,5,0,61.97,,,,NaN,,,,0 / 0,150708,2018-11-09 17:08:29:692
-0.986,-9.27,-0.651,24,0,58.1,,,,NaN,,,,0 / 0,150808,2018-11-09 17:08:29:792
0.555,-10.688,0.852,16,0,58.1,,,,NaN,,,,0 / 0,150909,2018-11-09 17:08:29:893
-3.246,-10.63,1.426,11,0,58.1,,,,NaN,,,,0 / 0,151008,2018-11-09 17:08:29:992
-4.357,-10.276,1.743,2,0,54.96,,,,NaN,,,,0 / 0,151108,2018-11-09 17:08:30:092
-3.869,-8.571,1.676,18,0,54.96,,,,NaN,,,,0 / 0,151209,2018-11-09 17:08:30:193
-1.81,-8.456,1.532,2,0,54.96,,,,NaN,,,,0 / 0,151309,2018-11-09 17:08:30:293
-1.426,-9.251,0.478,17,0,55.43,,,,NaN,,,,0 / 0,151409,2018-11-09 17:08:30:393
-3.476,-10.017,2.585,12,0,55.43,,,,NaN,,,,0 / 0,151509,2018-11-09 17:08:30:493
-1.551,-10.103,1.312,9,0,55.43,,,,NaN,,,,0 / 0,151609,2018-11-09 17:08:30:593
-2.26,-9.596,0.852,13,0,50.84,,,,NaN,,,,0 / 0,151709,2018-11-09 17:08:30:693
-1.762,-9.653,0.086,23,0,50.84,,,,NaN,,,,0 / 0,151809,2018-11-09 17:08:30:793
-1.992,-9.299,0.181,10,0,50.84,,,,NaN,,,,0 / 0,151909,2018-11-09 17:08:30:893
0,-10.17,-0.344,6,0,51.5,,,,NaN,,,,0 / 0,152009,2018-11-09 17:08:30:993
-2.614,-9.759,0.928,11,0,51.5,,,,NaN,,,,0 / 0,152109,2018-11-09 17:08:31:093
-1.752,-9.557,-0.162,11,0,51.5,,,,NaN,,,,0 / 0,152209,2018-11-09 17:08:31:193
-1.206,-9.471,-0.21,9,0,50.03,,,,NaN,,,,0 / 0,152309,2018-11-09 17:08:31:293
-1.474,-9.739,0.181,8,0,50.03,,,,NaN,,,,0 / 0,152409,2018-11-09 17:08:31:393
-0.593,-9.557,-0.191,23,0,50.03,,,,NaN,,,,0 / 0,152509,2018-11-09 17:08:31:493
-1.829,-9.538,0.019,8,0,40.45,,,,NaN,,,,0 / 0,152609,2018-11-09 17:08:31:593
-1.34,-9.49,-0.191,10,0,40.45,,,,NaN,,,,0 / 0,152709,2018-11-09 17:08:31:693
-1.618,-9.701,-0.076,13,0,40.45,,,,NaN,,,,0 / 0,152809,2018-11-09 17:08:31:793
-1.302,-9.711,-0.009,10,0,38.68,,,,NaN,,,,0 / 0,152909,2018-11-09 17:08:31:893
-1.532,-9.682,-0.047,6,0,38.68,,,,NaN,,,,0 / 0,153009,2018-11-09 17:08:31:993
-1.513,-9.567,-0.172,12,0,38.68,,,,NaN,,,,0 / 0,153109,2018-11-09 17:08:32:093
-1.177,-9.596,-0.478,15,0,34.14,,,,NaN,,,,0 / 0,153209,2018-11-09 17:08:32:193
-0.928,-9.72,0.124,12,0,34.14,,,,NaN,,,,0 / 0,153309,2018-11-09 17:08:32:293
-0.747,-9.711,-0.239,6,0,34.14,,,,NaN,,,,0 / 0,153409,2018-11-09 17:08:32:393
0.239,-10.151,0.22,10,0,43.49,,,,NaN,,,,0 / 0,153509,2018-11-09 17:08:32:493
-2.039,-9.49,-0.296,14,0,43.49,,,,NaN,,,,0 / 0,153609,2018-11-09 17:08:32:593
-1.426,-9.634,-0.153,4,0,43.49,,,,NaN,,,,0 / 0,153709,2018-11-09 17:08:32:693
-0.699,-9.615,-0.316,11,0,42.64,,,,NaN,,,,0 / 0,153809,2018-11-09 17:08:32:793
-1.589,-9.615,-0.134,15,0,42.64,,,,NaN,,,,0 / 0,153909,2018-11-09 17:08:32:893
-1.446,-9.577,-0.507,4,0,42.64,,,,NaN,,,,0 / 0,154009,2018-11-09 17:08:32:993
-1.599,-9.557,-0.316,12,0,34.56,,,,NaN,,,,0 / 0,154109,2018-11-09 17:08:33:093
-1.273,-9.625,-0.191,15,0,34.56,,,,NaN,,,,0 / 0,154209,2018-11-09 17:08:33:193
-0.996,-9.577,-0.277,13,0,34.56,,,,NaN,,,,0 / 0,154309,2018-11-09 17:08:33:293
-1.369,-9.634,-0.306,2,0,37.37,,,,NaN,,,,0 / 0,154409,2018-11-09 17:08:33:393
-1.101,-9.529,-0.363,14,0,37.37,,,,NaN,,,,0 / 0,154509,2018-11-09 17:08:33:493
-1.187,-9.692,-0.162,6,0,37.37,,,,NaN,,,,0 / 0,154609,2018-11-09 17:08:33:593
-1.225,-9.567,-0.229,0,0,28.49,,,,NaN,,,,0 / 0,154709,2018-11-09 17:08:33:693
-1.149,-9.586,-0.43,12,0,28.49,,,,NaN,,,,0 / 0,154809,2018-11-09 17:08:33:793
-1.187,-9.596,-0.383,16,0,28.49,,,,NaN,,,,0 / 0,154909,2018-11-09 17:08:33:893
-1.197,-9.644,-0.383,19,0,28.49,,,,NaN,,,,0 / 0,155009,2018-11-09 17:08:33:993
-1.158,-9.615,-0.411,3,0,26.52,,,,NaN,,,,0 / 0,155109,2018-11-09 17:08:34:093
-1.139,-9.5,-0.459,27,0,26.52,,,,NaN,,,,0 / 0,155209,2018-11-09 17:08:34:193
-1.149,-9.567,-0.392,14,0,26.52,,,,NaN,,,,0 / 0,155309,2018-11-09 17:08:34:293
-1.139,-9.557,-0.392,0,0,35.9,,,,NaN,,,,0 / 0,155409,2018-11-09 17:08:34:393
-1.312,-9.653,-0.402,14,0,35.9,,,,NaN,,,,0 / 0,155509,2018-11-09 17:08:34:493
